index,solo_roll,solo_pitch,solo_tilt,solo_acc_x,solo_acc_y,solo_acc_z,solo_dir,sonic_wspd,sonic_wdir
0,2.52,4.266666666666667,4.954099323445928,0.7954199000000001,-0.4268097,-9.919105666666667,149.46308095287498,4.89150554408182,162.05236683378152
1,2.585,4.035,4.790866092523724,0.7060027,-0.45665445,-9.9867955,147.37997542950484,5.213277622206346,163.92360171363163
2,2.733333333333333,4.073333333333333,4.9041372849871285,0.8067332666666666,-0.3472832333333334,-9.887735333333334,146.16174984688314,4.998532406911238,165.4224607663825
3,1.79,4.08,4.454781930746097,0.6753601,-0.40315500000000004,-9.7415375,156.34051330491002,5.002262690758846,164.91786294740518
4,2.723333333333333,3.956666666666667,4.802078775758448,0.7634069666666666,-0.4037697333333334,-9.770671666666667,145.48317850645742,4.598931677886948,161.23642858344206
5,1.9250000000000003,4.62,5.004197212490058,0.7445253000000001,-0.4566353999999999,-9.7444885,157.4166094950563,4.657278794399293,164.47922511859466
6,2.0533333333333332,4.54,4.981862037006052,0.8202300333333333,-0.39643663333333334,-9.902195,155.6997567917706,4.750385118981671,163.34314700468667
7,2.99,3.49,4.594468252961982,0.6114344,-0.37296189999999996,-9.758433499999999,139.4215550590038,4.8759679161093334,167.04632929318208
8,2.013333333333333,3.526666666666667,4.060266995359199,0.7190646333333334,-0.3934722666666666,-9.751057333333334,150.29947327253066,5.0981805123565405,166.034992640516
9,1.7149999999999999,4.0649999999999995,4.41140715620897,0.6830433499999999,-0.46219335,-9.877998999999999,157.15372724979431,5.3201761439269175,171.24466320662412
10,2.1733333333333333,5.116666666666666,5.557975477523721,0.8123716666666666,-0.3442629666666666,-9.853684333333334,157.03134832627399,5.508909515031764,161.49005247602778
11,2.6,4.61,5.291266782251533,0.8655412,-0.44171669999999996,-9.7846335,150.61351286946356,5.4150868957380975,162.28787726753006
12,2.9966666666666666,4.433333333333333,5.3494414443276685,0.8050590666666667,-0.46099266666666666,-9.759264666666667,145.97253751189763,5.197686515812855,161.0014816357141
13,2.06,4.300000000000001,4.767140561920734,0.709479,-0.43227134999999994,-9.8265135,154.43465993056552,5.280308249526457,167.16614627554185
14,2.44,3.9333333333333336,4.627672675581211,0.7767455333333334,-0.47699716666666675,-9.771071,148.21189601414997,5.035083094571642,164.75407919950163
15,2.75,3.795,4.685452048567039,0.7408403,-0.49445409999999995,-9.757079000000001,144.09043130460344,4.94414248737687,162.68574374380484
16,2.7099999999999995,4.546666666666667,5.291583267931179,0.8007409999999999,-0.47221106666666657,-9.742423,149.2374808442231,4.7973038944576,163.12856761567284
17,2.49,4.625,5.2514046620356245,0.7260586,-0.4795822,-9.7474775,151.73988216480092,4.699302929547603,160.7961574523904
18,2.68,4.173333333333333,4.958467792534443,0.7840708666666667,-0.5223102,-9.925476,147.31965088278764,4.512381549228384,159.17961977038416
19,3.45,4.145,5.390987689742743,0.7662577,-0.416273,-9.771504499999999,140.24356649916575,4.349355297826717,157.59720655116953
20,2.12,4.836666666666667,5.279873357162906,0.6860653666666666,-0.4147583666666666,-9.788555,156.37175651442624,4.292903169077704,154.03025508411022
21,2.235,4.24,4.792045733432398,0.6219775,-0.39333205,-9.942896000000001,152.23646538536136,4.287021337413752,161.4264427879983
22,2.3466666666666662,4.21,4.818820307490355,0.7252670999999999,-0.34863873333333334,-9.988313333333332,150.8948401876591,4.236248267896013,158.85129900558638
23,1.44,4.78,4.991711810362756,0.76008235,-0.35892565,-9.941199,163.26820838190298,4.343963761452642,158.21352944417524
24,2.0166666666666666,3.606666666666667,4.13153909595926,0.7068338666666666,-0.2617391666666667,-9.944868999999999,150.81045341515286,4.385400106728863,157.8507284239498
25,1.39,4.619999999999999,4.824138326663784,0.7585661499999999,-0.38953534999999995,-9.8974235,163.28643999736133,4.437396253848666,164.58729194123276
26,3.0433333333333334,4.386666666666667,5.337285353542292,0.7460064666666666,-0.38237766666666667,-9.822595666666667,145.27553178813542,4.148689636953837,160.38344552440466
27,2.42,4.025,4.695464505308453,0.79126225,-0.39073835,-9.7821535,149.01054876086224,3.89130963236137,170.19821877346607
28,1.0433333333333332,5.34,5.440679251960751,0.8046080999999999,-0.3737228666666666,-9.782776,168.9748288480098,3.92771312260561,172.50084796368012
29,2.53,4.05,4.774173686707494,0.7429393499999999,-0.40464954999999997,-9.9435855,148.0335174303271,3.7272562455431117,165.46499472328068
30,3.6633333333333336,4.406666666666666,5.728197233384973,0.7077881333333332,-0.4686598666666666,-9.766567,140.2798992514231,3.645779880360421,170.99450244811126
31,2.085,4.205,4.692700866572406,0.6348254,-0.40351430000000005,-9.800328,153.65693633019254,3.664681550246522,172.7407574689146
32,1.7966666666666666,3.6999999999999997,4.112605306263335,0.7173574666666666,-0.3702327,-9.737138999999999,154.12339570992728,3.797741743749771,168.66779295055883
33,1.87,3.9,4.324522782855211,0.7477881500000001,-0.4239009,-10.000644,154.40947118883759,3.599636086410778,174.4088939986021
34,2.0533333333333332,5.22,5.608288962576246,0.9502065000000001,-0.2614418333333333,-9.960739666666667,158.5730730738016,3.4246826427166144,159.87209886739038
35,1.2149999999999999,4.869999999999999,5.018921013973591,0.83001305,-0.29784255000000004,-9.836979,166.02185623965204,3.403706877262754,173.9854486635755
36,1.7733333333333334,3.393333333333333,3.8282821670507845,0.7019959666666667,-0.3618653,-9.940028,152.42873685808837,3.8959414310492124,179.94446739852498
37,1.9949999999999999,4.175,4.626402784808417,0.5860545500000001,-0.23852489999999998,-9.922756,154.48993694966708,3.9811651435980884,176.80168167840884
38,1.5766666666666669,4.493333333333333,4.761388833814933,0.6130291,-0.21337683333333332,-9.915719333333334,160.6967360162302,3.3280379851374513,169.16289332744418
39,0.645,3.335,3.396730789409338,0.4921431,-0.20727285,-9.988399999999999,169.06556604764108,2.8535882095098337,173.25898012167815
40,0.18333333333333335,2.4933333333333336,2.5000601998487695,0.5497925333333332,-0.11909087,-9.920652666666667,175.79727411331336,3.0749620523974377,169.56907263103471
41,0.775,2.755,2.861850280945464,0.5944649,-0.1794794,-9.764897,164.29895372470418,2.645507977816179,180.26556370438016
42,1.1466666666666667,2.876666666666667,3.0966030633636645,0.6561079666666667,-0.1623082,-9.644118999999998,158.28123827455488,2.2957465665698935,174.46985269006112
43,0.625,2.29,2.37371375183435,0.49901895,-0.25544275,-9.741911,164.7414699883142,2.3949051654532982,165.18818418255742
44,0.93,2.1166666666666667,2.311878948319853,0.5166416333333333,-0.1890720766666667,-9.890703333333335,156.28849840134848,2.4248385194036093,161.23799008257512
45,0.10500000000000004,2.885,2.88690849886693,0.47897345,-0.16302319999999998,-9.7822955,177.9173896471466,2.2372289426620147,147.566366392407
46,2.3333333333333335,3.356666666666667,4.087227012839191,0.5683457000000001,-0.18419566666666667,-9.969099666666667,145.2114140300208,2.515938980812072,162.19765568254107
47,0.99,1.9900000000000002,2.222567402173575,0.45785555,-0.17355759999999998,-9.778155,153.557147511961,2.329745648782221,169.00372741911258
48,0.5033333333333333,1.7966666666666666,1.8658168482222157,0.38235379999999997,-0.24080966666666667,-10.071773666666667,164.3543640207555,2.8082335089229957,164.42814350180717
49,1.68,1.87,2.5136224289980227,0.43883819999999996,-0.26212935,-9.8178275,138.0655633615036,3.0068708994163678,154.50117523882287
50,2.5566666666666666,3.856666666666667,4.626072406716347,0.6908617,-0.4271088666666667,-9.806378333333333,146.48112069255023,3.1359369195271554,155.16483244473508
51,3.02,2.64,4.010429341198679,0.2520413,-0.4568549500000001,-9.748262,131.15284369198227,2.6725532145516664,157.2612807496584
52,1.89,2.6300000000000003,3.2382851404537307,0.5783237333333333,-0.4922957666666667,-9.722114333333332,144.30702586171614,3.045111937328948,148.26244152341982
53,2.585,3.31,4.198915162570697,0.49668755,-0.4543829,-9.8635635,142.02342248602056,3.25029813527491,153.94197788383678
54,2.4233333333333333,3.6266666666666665,4.360895510567356,0.7103958333333334,-0.41808930000000005,-9.916074666666667,146.26880115661535,3.6046970759277963,163.22388925918384
55,1.68,4.07,4.402561855781408,0.7371878000000001,-0.38611399999999996,-9.995981,157.59854177943413,4.281855876117343,168.33467070470195
56,2.36,3.6233333333333335,4.323276189160591,0.659066,-0.40354616666666665,-9.995356,146.9425710641568,4.251384184274771,164.32688735136435
57,3.085,3.395,4.586077498863584,0.6002667500000001,-0.41199189999999997,-9.9558355,137.74473896061622,3.8264589215257425,142.2072018408243
58,2.2466666666666666,3.5866666666666673,4.231441048015029,0.6828947666666666,-0.4098411,-9.681952333333333,147.95769668120678,3.5276884473309895,152.95449233199386
59,2.96,3.745,4.772226097744825,0.63554055,-0.6557551500000001,-9.8208065,141.69252765158066,3.743698324483136,145.39968028223652
60,4.426666666666667,2.7266666666666666,5.197623297152413,0.5880113333333333,-0.6702429333333333,-9.700021999999999,121.59992418025786,4.061052144420572,154.55439320287502
61,4.575,4.1850000000000005,6.1973864126583145,0.6248573500000001,-0.58825495,-9.7183825,132.44091827238282,4.950138672161186,150.8923760340839
62,2.526666666666667,3.7066666666666666,4.484920545579774,0.6546947,-0.6198072,-10.26669,145.73945986606253,5.193352746998589,158.72596681550604
63,1.885,2.14,2.8515210759812617,0.50414885,-0.27103425000000003,-10.007059000000002,138.62803752926428,4.759365091742087,166.01906666018948
64,1.6199999999999999,4.003333333333334,4.318194690091647,0.7063283666666665,-0.2581583333333333,-10.067687333333334,157.9957881936376,5.384506812457646,163.19686252814614
65,0.91,4.1,4.199605461470616,0.67718945,-0.38567945,-9.713369499999999,167.5056678552703,5.394438831643435,165.34707921543907
66,2.716666666666667,2.823333333333333,3.917335000247862,0.6559128666666667,-0.4233087,-9.857466666666665,136.1047511028032,5.1001208788526275,164.01862018898103
67,2.91,4.67,5.500748696781751,0.6704759,-0.37504405,-9.8626325,148.10678061914263,4.866287292915206,165.8270874369773
68,2.6633333333333336,4.336666666666667,5.087874757448496,0.7171177000000001,-0.4601342,-9.643806333333334,148.4745635837079,4.703890665316236,160.0782702528233
69,3.115,3.93,5.013272387425043,0.7977814999999999,-0.50652465,-9.9208555,141.61521084060863,4.664929235797183,165.6858248037924
70,2.6599999999999997,4.359999999999999,5.106029309599398,0.7446079000000001,-0.5290232333333333,-9.849487333333334,148.64389539890058,4.635264610110403,164.58636344948147
71,2.59,3.4749999999999996,4.333070128103824,0.58770185,-0.45052695,-9.902691999999998,143.3169440307269,4.559951028989073,163.94997544348024
72,1.9849999999999999,4.185,4.631138060077309,0.77272675,-0.4233072,-9.853474,154.65501626870412,4.4439325176802,163.20371307464183
73,1.96,3.8866666666666667,4.352227360962569,0.7910290666666667,-0.38263396666666666,-9.850791666666666,153.26510562218007,4.3824986450166925,163.85323693973203
74,2.7199999999999998,4.695,5.42446824839873,0.7896882000000001,-0.47523035,-9.9257655,149.95160250432207,4.187261473745286,166.0694377163028
75,3.035,4.484999999999999,5.413651727514214,0.7919243499999999,-0.38799425,-9.9788125,145.94328345604868,4.387833747502455,168.07411273915721
76,2.3233333333333337,3.98,4.60755813580783,0.7060500666666667,-0.42805340000000003,-9.846385333333332,149.752148179584,4.468615754799406,166.6737879184807
77,2.2199999999999998,4.18,4.732024132139621,0.7758112500000001,-0.39239395,-9.771019500000001,152.05747610103242,4.511191025318573,159.48526501804716
78,2.7733333333333334,4.013333333333333,4.877052089662288,0.7356135333333333,-0.442667,-9.716977,145.37730073855707,4.041469724332865,152.79112776149978
79,2.9699999999999998,3.7199999999999998,4.758875886555507,0.6906302,-0.48003694999999996,-9.880927,141.41084036078396,3.383781848168421,163.49225773788584
80,2.54,3.3533333333333335,4.205838253291283,0.7248829333333333,-0.3660208333333334,-9.766660666666665,142.87113754411314,3.8861401619305616,168.24021697342653
81,1.96,3.0700000000000003,3.641815840031659,0.78846175,-0.42181145,-9.959929500000001,147.4590990439582,3.541760198501219,163.63680548773112
82,1.9233333333333331,3.203333333333333,3.7358667201550735,0.7283626999999999,-0.4424403333333333,-9.886406333333333,149.03557345391988,3.5001910531604166,148.7449115065697
83,3.74,3.9349999999999996,5.426768814409632,0.91008295,-0.25256285,-9.931159,136.45976727169867,3.3685184632764233,154.39983914704214
84,1.2033333333333334,5.09,5.229942612565002,0.7354170666666667,-0.2618777666666667,-9.962189333333333,166.73073312295324,2.9744869916873373,174.84625097793878
85,0.415,4.9,4.917499864454085,0.7951107,-0.34920455000000006,-10.0529255,175.17061928841687,3.9679559585021074,180.32244037682764
86,2.1133333333333333,3.0,3.6690728031661393,0.8141585,-0.2648180333333333,-9.512997333333333,144.8498611011076,3.9109759987812946,165.7767161308924
87,1.9649999999999999,4.615,5.015086782255541,0.68810485,-0.46992140000000004,-9.6681575,156.97300690237861,4.225533690570509,174.28452283229265
88,2.8366666666666664,4.55,5.360247463154874,0.6808166999999999,-0.4589936333333333,-9.810893666666667,148.09191669918576,4.439357199187407,165.75030162132555
89,2.4400000000000004,3.1449999999999996,3.9797793556520276,0.70934725,-0.36266125,-9.7661225,142.20555662066127,4.994850750683577,164.41178749940113
90,2.413333333333333,4.56,5.158049453838099,0.7491507000000001,-0.40050813333333335,-9.840983666666668,152.146485427916,5.013045602642975,164.6472035260929
91,2.35,4.76,5.307295684239615,0.7405773,-0.37620005,-9.869473,153.76419198354716,5.051578980269483,167.31247862613003
92,2.736666666666667,4.476666666666667,5.245439953218153,0.7871327333333333,-0.3573319333333333,-9.873377666666668,148.59435580164896,5.034661297334437,167.28302113692817
93,2.8550000000000004,4.265000000000001,5.130905070360412,0.8020995,-0.37636365,-9.83356,146.22860861288785,4.916077554020253,167.79650723798224
94,2.2733333333333334,4.793333333333333,5.303963151677061,0.8051836333333334,-0.4057702000000001,-9.900831333333334,154.66659653110418,4.899713557737855,168.7814482770678
95,2.56,4.484999999999999,5.162889901481897,0.8981889000000001,-0.38635155,-9.700457,150.3166618750278,4.907596748930702,166.63415606263644
96,2.243333333333333,4.553333333333334,5.07491762056558,0.7272488333333333,-0.46947126666666666,-9.767073333333334,153.80774466382763,5.0457088417349185,168.92605872514807
97,2.14,3.8200000000000003,4.377809014282304,0.8049600000000001,-0.44881570000000004,-9.9199095,150.76690550068415,4.84442941005026,163.83190305821577
98,2.5233333333333334,3.7133333333333334,4.488556240796152,0.7337130666666667,-0.4685025666666666,-9.81613,145.8226880977289,5.063174329743281,163.72563828184238
99,2.34,3.6,4.2928302670031675,0.7174562,-0.42178275,-9.791771,146.99605185491166,4.812255813027516,161.7046035205628
100,2.2733333333333334,3.1333333333333333,3.870486880108852,0.6588615666666667,-0.3932429,-9.803419666666665,144.05078755029965,4.718770238704911,165.95213525957672
101,1.8050000000000002,3.575,4.004300260209614,0.75642495,-0.35163015000000003,-9.7660085,153.2333217192729,4.491298681063059,168.7368154784504
102,1.8233333333333333,3.6733333333333333,4.1004104292196235,0.7104044666666667,-0.2855198,-9.675563333333333,153.62514754749935,4.609144429129308,162.44918654102804
103,1.675,4.17,4.4932804502881885,0.75542685,-0.42181979999999997,-9.884214499999999,158.14509583928117,4.659547899573273,164.98731615269216
104,3.026666666666667,3.706666666666667,4.784067618499519,0.711663,-0.46406580000000003,-9.734588666666667,140.77982497149745,4.338425477551385,165.91927224014762
105,2.825,3.27,4.320284338728644,0.72764795,-0.5210092,-9.77323,139.1836099207333,4.641578321189952,164.3518641819708
106,3.3333333333333335,2.5833333333333335,4.216300540784532,0.7410171000000001,-0.39367726666666664,-9.907271333333334,127.76316928993384,4.654011728415127,166.8951881915248
107,0.86,4.365,4.448751910239791,0.7249321500000001,-0.34895729999999997,-9.811073,168.87445657742205,4.433013810568976,165.9894381885845
108,0.8266666666666665,4.61,4.683375112667604,0.7591067666666667,-0.36962986666666664,-9.724821333333333,169.85455322992698,5.0963670408790795,167.2724045193019
109,2.91,4.26,5.157527262891463,1.00559245,-0.40974365,-9.721070000000001,145.68934564080678,5.251959016464201,161.013100259794
110,2.8166666666666664,4.640000000000001,5.426403697473863,0.8865044000000001,-0.39223973333333334,-9.423751000000001,148.7757137864382,5.0482290644793615,158.35575405479753
111,1.3399999999999999,4.33,4.532226848337547,0.8468017,-0.24596274999999998,-9.4252825,162.83221010050866,5.289687034072726,165.18025548687527
112,1.7400000000000002,4.829999999999999,5.133159299253414,0.798568,-0.3733470666666667,-10.061179333333333,160.22622426623977,5.377881579691162,163.8292113742653
113,3.5,2.77,4.4624379175023945,0.63495105,-0.5462833,-9.934632,128.34612259392676,4.524799492461742,149.65370869064856
114,3.1633333333333336,3.27,4.548484196033352,0.7165082666666667,-0.5399964,-9.815945333333334,135.9518927778896,3.85243260832417,152.61223854360478
115,3.24,4.745,5.743571167356034,0.78799945,-0.43644055,-9.7581325,145.70642794513103,4.263967368368093,160.31508984123334
116,1.75,4.743333333333333,5.055166766946395,0.7377294,-0.427148,-9.579308333333335,159.7857822844743,4.822875595733553,162.77432997254775
117,2.965,3.84,4.850119173571068,0.6639553,-0.49050889999999997,-9.837017500000002,142.3437822309997,5.047715541172992,160.66093934652204
118,2.393333333333333,4.316666666666666,4.9346542430731555,0.7940103333333334,-0.41520660000000004,-9.690135,151.02613871539347,5.3759419972361995,160.94050918341824
119,3.0300000000000002,3.5999999999999996,4.704127229091151,0.72995095,-0.48582654999999997,-9.7121525,139.92464712020342,5.0519719958984375,162.46097367177788
120,3.223333333333333,4.78,5.763172469836291,0.8120338333333333,-0.4295662,-9.882083333333334,146.04040425771228,4.956544429998051,160.74566354282518
121,2.72,5.01,5.699090425232384,0.7318898,-0.40088595,-9.926874000000002,151.54509956253742,4.953095649222755,158.88386116422308
122,2.483333333333334,4.233333333333333,4.906814456655179,0.8331749,-0.4377102,-9.757306000000002,149.63339679439883,5.073969268446759,167.1677862634293
123,2.7199999999999998,5.165,5.835715077959933,0.8300302500000001,-0.46451485,-10.02484,152.27407321077183,4.978502561339298,165.89859298756426
124,2.2766666666666664,5.113333333333333,5.596036046022741,0.7654781,-0.5005691666666666,-9.787654333333334,156.04478726953937,5.05519319704651,163.62484606057362
125,2.915,4.8149999999999995,5.626849363280308,0.849896,-0.43332670000000006,-9.8707695,148.84722301353696,5.045211968213229,162.82174319765545
126,3.2999999999999994,4.536666666666667,5.607902624454593,0.8133213,-0.46367129999999995,-9.888048999999999,143.99449772775986,5.059951489214836,163.39908876897792
127,2.665,3.885,4.7100488911099045,0.7113120499999999,-0.5166472,-9.8412665,145.57269785710673,4.967555745155112,164.25223493975628
128,2.29,4.576666666666667,5.116524069497933,0.716186,-0.3936789666666667,-9.795842666666665,153.45486540395828,5.118039401872603,168.94862449637614
129,2.255,4.965,5.451927564350047,0.7744125500000001,-0.42128535,-9.766816500000001,155.6163582263768,5.064057399303861,168.63397659790553
130,2.623333333333333,3.763333333333333,4.586355277392825,0.7544651666666667,-0.4507858333333334,-9.737173666666665,145.14042993882896,4.968557910793821,167.641976784047
131,2.415,3.975,4.650106318424499,0.82837205,-0.4801344,-9.752685,148.74511374763384,4.721265457742999,166.77764637406347
132,2.6199999999999997,4.273333333333333,5.011291550649993,0.8166994333333334,-0.4689429333333333,-9.639546333333334,148.51694073909812,4.76286948441741,165.63913002872172
133,2.445,4.125,4.794091846441458,0.80453755,-0.5540213,-9.922336000000001,149.37182584349887,4.95001033464997,167.60665537092913
134,2.936666666666666,4.13,5.066159001212313,0.8390481666666667,-0.5604621333333334,-9.857071,144.6082014263587,5.218547269730211,164.50237989860108
135,2.785,4.1,4.955096316326442,0.74391395,-0.4497723,-9.894058000000001,145.8374965817794,5.096212461986956,167.2131433195558
136,1.6966666666666665,3.9066666666666663,4.2586687481173495,0.6909383,-0.4136225,-9.823503333333333,156.55102345280548,5.143128210965454,165.802094756945
137,1.95,3.855,4.3194658170603715,0.7583382,-0.3969577,-9.812863499999999,153.19398378097463,5.1237033054716115,167.7398233784409
138,2.466666666666667,4.49,5.121726535888552,0.853478,-0.3935939,-9.871439333333335,151.25158096736342,4.789436739468687,170.75908504380627
139,2.325,4.6,5.153057769760882,0.7389254,-0.4983348,-9.819734,153.22333019696174,4.804896558140772,167.36579973916577
140,2.7099999999999995,3.82,4.682479407422099,0.8056496666666666,-0.4585398333333333,-9.946537333333334,144.66712138706558,4.642602156213293,167.0053832080835
141,2.175,4.26,4.782207007821186,0.7794246499999999,-0.4130611,-9.772675499999998,152.98445898335223,4.709854450147983,168.8762936725188
142,2.59,3.8366666666666664,4.627967203565898,0.8446969666666666,-0.40124776666666667,-9.803829666666667,145.9997302698446,4.471006437671511,177.31934603568578
143,0.625,4.32,4.364892265922976,0.71007595,-0.3110149,-9.855593500000001,171.78287020617378,4.686244644269502,170.54350309912004
144,2.3466666666666667,5.93,6.375897221523539,0.7740178666666666,-0.3179734,-9.766733666666667,158.46905183334525,4.556845779419977,170.51326111124936
145,2.1849999999999996,4.48,4.983461703259006,0.84592265,-0.32976384999999997,-9.842073,154.03554103530053,4.246888918737255,170.07575043311118
146,1.6666666666666667,4.373333333333332,4.679575329062577,0.7637876333333332,-0.3120344666666666,-9.802934666666667,159.16995766221055,4.02056736227777,165.54210545501826
147,1.79,4.984999999999999,5.295869671805137,0.8065229999999999,-0.2576371,-9.688442,160.2880429845449,3.9764120769500035,167.71465731066482
148,2.08,4.29,4.7668030550337015,0.8986135333333333,-0.41498336666666663,-9.707572333333333,154.16583232383027,3.9617116564863815,175.23401903766637
149,2.26,4.619999999999999,5.142073938707962,0.8366473999999999,-0.3737397,-9.6471695,153.9704979595759,4.175364666872181,166.7718774452227
150,2.0966666666666662,4.48,4.945447188128463,0.8295550666666666,-0.4148334,-9.718910333333334,154.95517862174282,4.950984954680401,166.80869197678217
151,2.7,3.74,4.611641965709945,0.71038775,-0.4024818,-9.861435,144.1920536393292,4.695350969206611,164.85126767487841
152,2.81,3.53,4.510765475899788,0.7646543333333332,-0.40146599999999993,-9.753459666666666,141.4919766125706,4.646479958488346,152.99546619841732
153,2.665,4.08,4.8720236652564335,0.6371889,-0.4582135,-9.7849525,146.8734419747479,4.242186279066025,154.8836376133689
154,2.6166666666666667,4.566666666666667,5.261832573928527,0.6610245666666666,-0.40788823333333335,-9.714852666666665,150.22281572607483,3.9000784681861926,161.52859059968907
155,2.015,3.71,4.221214090281915,0.55617195,-0.46857379999999993,-9.810095,151.51613558460622,3.922486889751814,157.75162963605595
156,2.2566666666666664,4.256666666666667,4.816885075278039,0.6917753333333333,-0.3521008333333333,-9.983486666666666,152.10115856699795,3.796315698700645,153.3510604794784
157,2.46,4.6,5.215226796387803,0.83299235,-0.32977205,-9.965189500000001,151.8995109013683,4.070064322862377,155.84102619341203
158,2.25,3.7866666666666666,4.40385862320898,0.5500500666666667,-0.33140963333333334,-9.908414,149.30536291914433,3.707101033035823,158.61636483523827
159,2.17,3.46,4.083475723946562,0.61647475,-0.3210451,-9.8742325,147.92443248393218,3.1590294656175932,137.85973701741398
160,0.5433333333333333,3.456666666666667,3.499056630448987,0.6745273333333334,-0.09474497,-9.752930333333333,171.07750182555463,2.573362259906077,137.46335657565123
161,1.025,3.7249999999999996,3.863258897046688,0.6488497,-0.03073832499999999,-9.645041500000001,164.63390713332586,2.838606488695244,171.5376276517292
162,1.24,3.186666666666666,3.4191897617369005,0.6153536666666667,-0.13262166666666667,-9.905749333333334,158.7548777216478,3.206282197676278,171.22483424206138
163,0.8300000000000001,2.605,2.7339440819732266,0.67316,-0.22194265000000002,-10.0067375,162.3374457503918,3.2848426110347524,190.2495389417386
164,1.9400000000000002,5.81,6.124278747665315,0.6650482000000001,-0.18066815333333333,-9.938758333333332,161.58796643282645,3.633849051032838,190.86503833362303
165,0.615,3.63,3.681659789623523,0.7180659,-0.26127845000000005,-9.907888,170.39644042333774,2.922181992747487,192.56695685018985
166,1.2833333333333334,3.6633333333333327,3.881328464498651,0.7970729666666667,-0.3342154,-9.951985333333333,160.71508412653148,3.439672261879588,174.28940686250036
167,2.12,5.015000000000001,5.443633032579315,0.9175095499999999,-0.27162185000000005,-9.8279755,157.1278310442884,4.035440339858944,178.30974757915592
168,1.9233333333333331,4.8,5.170159789294287,0.7854772666666667,-0.3019639,-9.900357666666666,158.20319317343413,3.864891328306602,170.6741441929576
169,1.96,4.79,5.174625132441898,0.7776289000000001,-0.19662055,-9.740294,157.7853186339525,3.591434346874527,173.66741472991836
170,1.0566666666666666,3.5966666666666662,3.748478163601845,0.608332,-0.2536817,-9.798009666666667,163.64631643749541,4.147061087766573,179.84306148489415
171,1.5750000000000002,4.115,4.405630847932679,0.9386597,-0.2377633,-9.9037385,159.0839434236614,4.055189085253761,180.3928446528187
172,1.78,3.3000000000000003,3.748985930321957,0.7221284666666666,-0.3281842666666666,-9.898992333333334,151.6766301587944,3.829410432014766,179.42581991470902
173,2.15,4.29,4.797703380287055,0.8346091,-0.3463614,-9.9023855,153.4137062661943,3.5027854811845156,175.18733369630303
174,1.4666666666666666,4.34,4.580676287201255,0.7343841333333332,-0.25010573333333336,-9.883864333333333,161.3572129864081,3.6494601023710453,179.2407576751919
175,0.81,4.83,4.897289564154349,0.7283801999999999,-0.2161133,-9.897719500000001,170.50150702257346,3.700347470293833,182.149665020118
176,0.32,4.38,4.391651221347107,0.8236194333333334,-0.21039546666666667,-9.996864333333335,175.8295019514598,3.7585385834243414,182.16683227866784
177,1.495,3.6100000000000003,3.90693825716121,0.99531965,-0.25091680000000005,-9.838721500000002,157.52643336349013,4.096151401725745,181.26074110537922
178,0.36000000000000004,5.403333333333333,5.415277156157793,0.99819,-0.15487969000000001,-9.770672666666668,176.1994948116305,4.484931975887511,179.9075236088721
179,0.92,5.505,5.581112689643035,0.8208571,-0.1167055,-10.0181435,170.54024883048558,4.1331324607321385,188.09103325056503
180,0.7933333333333333,4.206666666666666,4.280688135018453,0.9250876333333333,-0.12648266666666666,-9.731687333333333,169.3381415975153,3.929962479873834,181.99324814786831
181,0.9450000000000001,6.05,6.123087739506702,0.9274411,-0.1903472,-9.627697,171.1539368312976,3.9997691671173436,181.91516176861242
182,1.32,6.166666666666667,6.305826226273762,0.9685059333333333,0.027868659,-9.688837666666666,167.9611905745618,3.8354563310403487,179.9157209048448
183,-0.825,5.14,5.205612176664501,1.110832,-0.0268656276,-10.1834375,189.0950864601394,3.986983215928718,182.6542811372281
184,1.7300000000000002,6.446666666666668,6.673812245144465,0.9933945333333334,-0.3147758,-9.793664666666666,165.03451845793035,3.8490413371002226,176.43429251794186
185,3.265,5.855,6.701052850813651,0.9943066999999999,-0.33119595,-9.929997499999999,150.91268574504338,4.037503728214828,187.70282827781148
186,2.3233333333333337,4.95,5.466894904900557,0.8602333333333334,-0.3756905,-9.787799666666666,154.89931916589705,3.8154316202901746,167.33144309920817
187,1.67,4.67,4.958993951868161,0.87392545,-0.3696294,-9.9782685,160.35798159913497,4.513907067854997,162.68660141970457
188,2.1533333333333333,5.376666666666666,5.790662212265608,0.8962711999999998,-0.43701873333333335,-9.957668333333332,158.22290589928915,3.351188984818547,149.0136594014914
189,3.2,4.59,5.593405070835621,0.93146045,-0.39824195,-9.859869499999999,145.14664871695123,3.9160378948974994,169.0856332468016
190,2.5366666666666666,4.736666666666666,5.371780080990356,0.8600713999999999,-0.4136832000000001,-9.695217666666666,151.8680478130981,4.006858818073043,156.5401219854446
191,2.63,4.72,5.401818563855774,0.9417331499999999,-0.45125360000000003,-9.788957499999999,150.9113624234547,3.465354850457105,152.29951770513262
192,2.0366666666666666,5.3,5.676810042738104,0.7922342333333333,-0.47205613333333335,-9.896365,159.0260972150967,3.503506025102855,157.4313574675263
193,3.615,3.365,4.9372479539562155,0.8738351000000001,-0.47168195,-9.911347,132.94366398952286,3.716317387191086,162.42223096365638
194,2.51,3.9766666666666666,4.701473916766828,0.6713546666666668,-0.4938459,-9.888088666666667,147.7656376604474,3.658185756537295,168.42697040852218
195,2.24,4.725,5.227986625867675,0.7262778000000001,-0.43552155,-9.931418999999998,154.6746135171467,3.529638976670862,165.62905535107078
196,2.1199999999999997,4.496666666666667,4.970430456666907,0.6682931000000001,-0.4075168333333333,-9.813673333333334,154.7933146320089,3.3154872237576387,163.55765899941701
197,2.6550000000000002,4.715,5.409651420740642,0.6688372999999999,-0.41934194999999996,-9.74532,150.65411697455346,3.835927635131929,153.88058845802797
198,3.0733333333333337,3.7900000000000005,4.878083113232192,0.6015362666666667,-0.40698539999999994,-9.781213,140.97522267045122,3.8659697400197084,150.03206872686306
199,1.495,4.405,4.651305673233113,0.6259808499999999,-0.34716020000000003,-9.864287000000001,161.28387655682687,3.9410658342563796,146.33031662696447
200,1.95,3.9433333333333334,4.3984510421086895,0.7533678666666668,-0.29006649999999995,-9.845369333333332,153.71453473877077,4.046259353036073,137.8031310706365
201,1.805,4.135,4.5111629627622545,0.7106005500000001,-0.29280085,-9.953416,156.4474381586602,3.426051627551788,147.27284079658
202,1.6033333333333333,4.096666666666667,4.398746769790323,0.6870014333333333,-0.28100053333333336,-9.716955,158.65394737948242,3.302297070487887,146.22764578127314
203,1.915,3.725,4.18780149193823,0.63492355,-0.39019514999999994,-9.900385,152.81675016183218,3.1745490947721193,162.17227008881545
204,2.793333333333333,3.4599999999999995,4.445764550221988,0.5865906666666667,-0.4146043,-9.822774666666666,141.09717742605045,3.54301525478716,149.31136171059276
205,2.545,2.675,3.6916043458314904,0.64501295,-0.4184694,-9.828197499999998,136.42858492644197,3.6817105492523954,152.2461019912629
206,1.3366666666666667,2.94,3.229351226382448,0.5878719666666666,-0.4144398999999999,-9.980281333333332,155.5661888108595,3.663757341316692,157.85166039338796
207,-0.07,3.21,3.210762350627292,0.63633975,-0.43720655,-10.0698175,181.24793639499612,3.723763238805422,158.78324731396404
208,2.8466666666666662,2.0433333333333334,3.5036104097803427,0.5519255333333334,-0.25167803333333333,-9.931163333333334,125.65989685245253,4.0346295401727525,155.18104043770435
209,-0.26,2.99,3.001272833901695,0.5827361,-0.30840344999999997,-10.105290499999999,184.96528500578867,4.600580568317935,157.6263865036844
210,1.57,2.1266666666666665,2.6431948450764473,0.6170691333333332,-0.28326283333333335,-9.763014333333333,143.56932879420907,4.723100019710941,161.03215544977115
211,2.7649999999999997,3.395,4.377476325853485,0.81430985,-0.38869675,-9.723942,140.85056203127968,4.618420322107769,162.18155005959278
212,2.42,3.7566666666666664,4.467723017651405,0.7231023333333333,-0.4267322666666667,-9.633787333333332,147.23274173102635,4.150786655102312,163.91760802984643
213,2.37,3.33,4.086498925038588,0.74332435,-0.35854535,-9.796557,144.57515228195905,3.830110401808712,164.4365164200663
214,1.6900000000000002,3.33,3.733869740942665,0.7109456,-0.4020937,-9.903751,153.11120812008016,3.8161653166887968,164.31409407993362
215,2.07,3.9050000000000002,4.418969081659618,0.5703543,-0.3991203,-9.8864995,152.09882531683147,3.719685294452409,161.637669363179
216,0.93,2.5233333333333334,2.6891544866076966,0.5608034000000001,-0.40991740000000004,-9.744488666666665,159.77851612319745,3.7068195903279846,163.27580499521508
217,2.27,4.390000000000001,4.941144748849783,0.57463965,-0.37629585,-9.6837175,152.69078384444956,3.5622631339125235,165.89125576013745
218,3.2066666666666666,3.456666666666667,4.713679505034537,0.8213010666666668,-0.4346349333333333,-10.070175999999998,137.15349845675343,3.2518525843780544,160.16377046847253
219,1.835,3.16,3.6536844344090214,0.5686335,-0.36295655000000004,-9.8295785,149.87316132903135,3.1982219697543854,161.07486270854864
220,1.5,4.323333333333333,4.575690007315074,0.5604775666666667,-0.26061046666666665,-9.957938,160.89519769622038,3.282901333742765,159.87435248479701
221,1.8650000000000002,3.505,3.96974934160872,0.48693220000000004,-0.28380649999999996,-9.673005999999999,152.00395624799688,3.4544023502150325,158.0018621329695
222,2.046666666666667,2.33,3.100876474544199,0.6152966333333334,-0.23771836666666668,-9.937788333333332,138.7075816726417,3.1453397011655886,164.98663420621034
223,1.4300000000000002,1.7200000000000002,2.2366684294143924,0.39776435,-0.28449349999999995,-9.7696315,140.26263572101595,3.268522903492859,164.94267951983488
224,1.9266666666666667,3.23,3.7604535589531065,0.6626534666666667,-0.3506745,-9.887628000000001,149.20151114482115,3.319976838024326,164.92488383666054
225,1.6549999999999998,3.63,3.9890173074309323,0.63376745,-0.3307857,-9.742542,155.51361239328574,2.9456219885275186,162.28396473792424
226,2.0666666666666664,4.176666666666667,4.6591937909984225,0.7899362,-0.3661254333333333,-9.913297,153.70372002043405,3.1718497633164002,163.73979529168807
227,2.5250000000000004,4.175000000000001,4.878007829495311,0.5647869,-0.33943670000000004,-9.9148245,148.86337408970292,2.9995894594125376,163.66768548376012
228,1.3,3.26,3.509383968074782,0.6963512333333334,-0.3362909666666667,-9.943102,158.2771207860212,3.073184278123067,165.10511947513018
229,1.68,3.01,3.446723501105022,0.7563557999999999,-0.2699934,-9.9725205,150.8478407026357,3.0296164324267987,165.09317961760098
230,1.66,3.77,4.118801019966201,0.754613,-0.2695265,-9.790229666666667,156.25983153654835,2.8950324453224465,156.11680018085738
231,1.505,3.81,4.096069496864151,0.6341491,-0.22810795,-9.7540735,158.4697016765434,2.300133258036292,162.32280051414176
232,1.55,2.72,3.1303505901843853,0.5955575666666667,-0.3129902,-9.918152333333333,150.33572965154744,2.1444641838464578,149.3150747305923
233,3.155,1.8399999999999999,3.651876527029454,0.48607,-0.26609914999999995,-9.6981215,120.23414815167936,2.3504251427699816,143.21225717738403
234,1.7433333333333334,2.0866666666666664,2.7188315491668966,0.3484772333333333,-0.2743910666666666,-9.813706000000002,140.12624924842427,2.544926203964086,151.18451680053772
235,0.705,2.86,2.9455410578292858,0.53961645,-0.2308133,-9.917394,166.16285085885784,2.601785991113869,150.34201820090425
236,0.9833333333333334,2.6166666666666667,2.7952131458367546,0.37038763333333335,-0.21970573333333332,-9.852702333333333,159.41524000513652,2.7367213517945856,150.3024412440321
237,1.97,2.4699999999999998,3.159018102541214,0.42607395000000003,-0.21908005,-9.830459999999999,141.4314585301355,2.5803586908958303,151.25420954463047
238,0.9566666666666667,2.376666666666667,2.5618802797479976,0.5297498333333334,-0.14001850000000002,-9.885722666666666,158.08354630347978,3.291655238472877,148.76614316249035
239,0.25,2.8499999999999996,2.8609348899355944,0.46673230000000004,-0.2307345,-9.805084,174.99096882783206,3.1860152980086607,153.05766988514884
240,1.7533333333333332,3.3433333333333333,3.774727192536928,0.4720210333333333,-0.23250023333333333,-9.839677666666667,152.34568901335876,3.186314782654871,156.97859313552604
241,1.905,3.34,3.8445432836755775,0.49386434999999995,-0.23533395000000001,-9.871586,150.32018561656636,3.171435994959205,163.0474093658375
242,0.36999999999999994,2.81,2.83423538555067,0.6048548333333333,-0.31648956666666667,-10.101506666666667,172.50471163793924,2.870093023961237,169.4720610533901
243,2.62,2.9699999999999998,3.9596906227336017,0.4774115,-0.36901510000000004,-9.656065000000002,138.5883684736608,3.830352979779767,177.78263400673796
244,2.4,2.9033333333333338,3.766219987137426,0.6919605,-0.40979173333333335,-9.965148999999998,140.42927103131527,3.491562651276427,156.43810152171199
245,1.9,3.605,4.0744643351584555,0.5341334000000001,-0.3984102,-9.6989535,152.23126086711667,3.4038890825749797,157.7169670299289
246,2.6333333333333333,3.313333333333333,4.231416959234464,0.5286277,-0.42070293333333336,-9.829634333333333,141.5348980280095,3.4839782854404766,152.37155893554902
247,1.94,2.8,3.4059658273005944,0.26126315,-0.3809509,-9.704446,145.2946809725263,3.626919008774612,154.25281027717193
248,1.8266666666666669,2.0566666666666666,2.7504827862431585,0.3947624333333333,-0.3964663,-9.792770666666666,138.39210560153722,3.7580347286856,156.61404147892839
249,2.5949999999999998,3.02,3.9809781163159794,0.5948165,-0.43636465,-10.030397,139.33534106174764,3.8644994373628054,155.67863530326656
250,2.3133333333333335,2.9,3.709034907123072,0.6427023666666667,-0.4109520666666666,-9.8258,141.42927800311753,3.879106279443459,156.95765938927045
251,2.635,3.125,4.0868034953193515,0.65763135,-0.4347717,-9.838978000000001,139.87051470631255,3.692507109158304,157.66605083157415
252,2.8699999999999997,3.0066666666666664,4.155644473499082,0.5292216000000001,-0.4048634,-9.757747333333333,136.33455644524514,3.4294252606353806,156.85831131131673
253,2.55,3.24,4.1222768562997425,0.55644435,-0.4123425,-9.811544999999999,141.80725295288346,3.4775950983655015,157.2841977906316
254,2.5733333333333337,2.8066666666666666,3.8071149102418778,0.5910085999999999,-0.4103058333333333,-9.899372333333334,137.48703239790473,3.5480757526506235,160.0713465127097
255,1.9849999999999999,3.72,4.215813852151506,0.6671331,-0.43877560000000004,-9.9480805,151.939464247457,3.365846709103485,157.7267461829912
256,1.6433333333333333,4.4366666666666665,4.730661214821168,0.6762212333333332,-0.41533440000000005,-9.969385666666668,159.70767359020442,3.1759662808814038,159.00655865422897
257,2.4000000000000004,2.4699999999999998,3.4434475362534087,0.56482455,-0.43294509999999997,-9.850475,135.8244886536172,3.150778027064494,161.07873863166688
258,2.7266666666666666,3.546666666666667,4.472589378426863,0.6624454333333333,-0.40461826666666667,-9.871569333333333,142.46150613683903,2.9295358143125694,162.11667541893192
259,1.505,2.965,3.324789867593805,0.61489765,-0.38011490000000003,-9.887068,153.10350592111067,2.749976642531001,157.77761235251953
260,1.7999999999999998,3.44,3.8819718842041473,0.6212988666666667,-0.3568093666666667,-9.847969333333333,152.3994793119726,2.8375399916064947,159.93842765545722
261,1.92,3.7800000000000002,4.239038770856334,0.65735555,-0.29537985,-10.032634999999999,153.09725029542003,2.8687430539240384,159.8223355955249
262,1.26,2.7566666666666664,3.030773146050223,0.6386831333333333,-0.32297793333333336,-9.811727333333334,155.44933258794998,2.8430584144849984,157.43469205271822
263,1.76,3.41,3.8369312669466282,0.38319384999999995,-0.20591225000000002,-9.707163,152.72067044002554,2.6884295040554376,160.6127156060646
264,0.7566666666666667,3.4233333333333333,3.505862815519737,0.7687792666666667,-0.15819830000000001,-9.931447333333333,167.54985787462638,2.6078327222791247,168.563374815509
265,0.73,2.66,2.7582815444853157,0.5449158,-0.16727264999999997,-9.9560785,164.66350804133432,2.5874797072324234,173.75527522968133
266,2.02,3.1533333333333338,3.744301021440072,0.4271969,-0.2240546,-9.863388666666667,147.37220839830616,2.9342194274640487,170.1870390116537
267,1.55,3.3449999999999998,3.6862982392413386,0.6986161499999999,-0.19770554999999998,-9.941902500000001,155.1575361858641,2.640575953778506,176.7859479492913
268,1.7133333333333336,3.8333333333333335,4.1982822707243885,0.45022200000000007,-0.23124943333333334,-9.830777666666668,155.9429401840742,2.9137188433535735,173.11722070595644
269,2.41,3.395,4.162610375689916,0.48860514999999993,-0.18914799999999998,-9.856876,144.64601728734021,2.4063531344052347,173.02867536087257
270,1.3233333333333333,2.626666666666667,2.9409797432737665,0.5310190333333334,-0.2931686666666667,-9.759336333333332,153.2727500721215,2.3571564286440654,180.59955722261137
271,2.175,4.0200000000000005,4.569820473664006,0.742825,-0.35742615,-9.9336095,151.61249027313235,2.7196706567962563,164.00531741917976
272,2.273333333333333,3.6333333333333333,4.285116751273596,0.45367656666666667,-0.3526096333333333,-9.75238,147.98731402641087,2.740737508256662,156.05541284798173
273,1.8250000000000002,3.755,4.17443167883146,0.5652267,-0.35444005,-9.889472999999999,154.10403870356689,2.6932767582834143,161.08300671366746
274,1.9033333333333335,3.0833333333333335,3.6229993404883345,0.5943402,-0.3405482333333334,-9.915809999999999,148.3283922492043,2.5277356277345646,164.29950935906737
275,1.65,2.605,3.0832853755207643,0.59184065,-0.34477145,-9.946853,147.6606330894988,2.5880640182674557,163.43117082040095
276,1.2666666666666668,2.9466666666666668,3.207159808490849,0.4336312666666666,-0.2914837333333334,-9.811525333333334,156.75380790320057,2.872055275946508,169.37641218504805
277,1.565,2.505,2.95341991151461,0.5945219500000001,-0.28164435,-9.91129,148.01490476845336,2.5245111907062974,164.9519420877337
278,1.0566666666666669,2.3433333333333333,2.570434382966682,0.6099519666666667,-0.27869743333333336,-9.976758333333335,155.73775513129587,2.3988359809067603,169.17307563793963
279,1.135,2.755,2.9794726053099394,0.28895819999999994,-0.16972095,-9.774317499999999,157.6223234289621,2.485769022602952,159.02706649052823
280,1.09,2.4033333333333338,2.6388281873513995,0.4494044,-0.1866184,-9.737281333333334,155.61400510694295,3.155422200766823,151.78438722126577
281,0.10500000000000001,1.75,1.753146192253261,0.4955687,-0.21331315,-9.851122,176.5674310510431,2.704720707382035,155.79652783920187
282,1.1266666666666667,2.91,3.120318268312336,0.5377446666666666,-0.23349886666666664,-10.028392666666667,158.8491648844347,2.6313397586907477,150.1223957713452
283,1.645,3.045,3.4605637878165503,0.2578572,-0.1595334,-9.866564499999999,151.6367419831119,2.8181438578249898,145.50182574869754
284,0.6900000000000001,2.5366666666666666,2.628776647772405,0.38827056666666665,-0.21626196666666667,-9.856466666666666,164.79189427712402,2.5603452281693495,143.84906315328
285,0.17,2.65,2.6554433508653204,0.37966120000000003,-0.13839275,-9.872216,176.33205117412916,2.3443613811571993,147.16463941336067
286,1.3266666666666667,2.3699999999999997,2.715868273455679,0.5771058333333333,-0.18314713666666668,-9.884625000000002,150.77055772250284,2.019993620078119,145.93720952779935
287,1.205,2.24,2.5434003068831745,0.41118070000000007,-0.1560332,-9.8653505,151.73078659082654,2.224464626000808,149.31657096039714
288,0.3166666666666667,1.7733333333333334,1.8013763812581882,0.37576610000000005,-0.26388550000000005,-9.716912333333333,169.87839368908217,2.1532109420526795,149.7110312527877
289,3.135,1.97,3.70206036949911,0.26721005,-0.4107197,-9.7387755,122.12920818794134,2.2618353704234524,124.7878650676529
290,2.4066666666666667,1.71,2.95202039638097,0.4187195666666666,-0.3322254666666667,-9.891190666666668,125.38691336668643,2.210212311756303,116.4744829387184
291,1.365,3.33,3.598614530088463,0.5385918000000001,-0.32035009999999997,-9.962819,157.72963705971236,2.399270185982808,147.3591434744962
292,0.8633333333333334,2.35,2.503482861817902,0.3796313333333334,-0.2919346666666667,-9.954437666666665,159.83688365464656,2.677451986504371,144.59900882070087
293,1.825,0.835,2.0068916729676016,0.5120648499999999,-0.08949517500000001,-9.7269915,114.57991981639145,2.7164503516400234,141.23210636539707
294,-0.43,1.7766666666666666,1.827945616697803,0.4090374666666667,-0.08948383333333333,-9.716323666666666,193.60150314910348,2.5541380305041583,162.29232102342354
295,-0.14500000000000002,3.8499999999999996,3.852725443953683,0.55439275,-0.09528840000000001,-9.919974,182.15363401636498,2.5720069205809697,160.6170474941317
296,0.37666666666666665,2.643333333333333,2.670016519709141,0.5652056333333332,-0.12706681333333333,-9.777261999999999,171.8956921017211,2.6071116509570285,150.85775681952762
297,0.97,3.215,3.3579960199061865,0.34429509999999997,-0.074180895,-9.859444499999999,163.22599529968062,2.40698974791893,160.68517937170404
298,-0.12333333333333334,2.99,2.9925402754863635,0.5284862333333333,-0.18884323333333333,-9.822947,182.3598935391594,2.1592837993008813,170.5745150637696
299,2.355,3.0300000000000002,3.836893709040096,0.67526255,-0.20047303499999997,-9.917722000000001,142.15491493818465,2.1775518258396174,143.16257506192449
300,0.9933333333333332,2.686666666666667,2.8642914622296987,0.5926796333333333,-0.16408083333333334,-9.848387666666667,159.72107928917347,2.4480456667573027,153.14859162615545
301,0.22000000000000003,2.19,2.2010171347071306,0.57070775,-0.350033,-9.8827195,174.266251901028,2.407311643271488,168.51694149263895
302,1.2866666666666668,3.676666666666667,3.8950116616527,0.48986263333333335,-0.24084973333333334,-9.709013666666666,160.7337969012328,2.0343441255845316,154.54257025707426
303,-0.185,2.7,2.7063258603113,0.6219492,-0.14667275,-10.020624,183.91681628146947,1.7625934743669955,166.67190844609163
304,-0.96,2.04,2.254508931814219,0.3781782333333334,-0.1421056601,-9.761791,205.1938596308158,1.9345362064663918,166.4646986450522
305,-0.09499999999999997,2.125,2.127121496657465,0.12145503500000002,-0.053291,-10.056695000000001,182.55858407893214,2.205754707371478,145.60507566773845
306,0.8566666666666668,1.5466666666666666,1.7680150693831158,0.3516857666666666,-0.19785316666666666,-9.850496,151.0229283951643,2.165607605857703,140.1606990571299
307,2.37,2.4050000000000002,3.3760369374758357,0.49287525,-0.152418445,-9.717310999999999,135.42044803238417,2.5008075851024674,160.64697562710032
308,1.4666666666666668,2.0566666666666666,2.525879029351587,0.4309445333333333,-0.31184613333333333,-10.022382333333335,144.51198683120438,2.3567070765129605,172.91919974574077
309,1.165,2.335,2.609348293540807,0.480228,-0.23828014999999997,-9.857506,153.49356610392047,2.4747924266135928,165.2604623453258
310,0.9266666666666666,2.81,2.958736640141241,0.42275766666666664,-0.19839843333333332,-9.903858666666666,161.76093766288486,2.313750956236982,171.85443528499607
311,1.01,3.16,3.317328060286938,0.6328965500000001,-0.2825473,-9.838887,162.29019952111435,2.355791325943597,180.8502961122907
312,1.8333333333333333,3.48,3.932858594275976,0.6786260666666667,-0.2503979,-9.828142666666666,152.23985305951072,2.710406960059395,167.46192000391838
313,1.875,3.6550000000000002,4.107295892321789,0.48695524999999995,-0.29733325,-9.7504345,152.86564075190356,2.5511628734881535,175.39349899228625
314,1.18,3.2566666666666664,3.4636365167949856,0.6037728,-0.2265488,-9.840845999999999,160.10001904977105,2.501601961253319,182.41696705923616
315,1.345,2.81,3.115072118656162,0.5581244,-0.16611594999999998,-9.871754,154.43579800539246,2.233748561167084,169.81947771819472
316,0.7966666666666667,3.9233333333333333,4.003277398871154,0.6259862333333334,-0.1746107,-10.023470333333334,168.53841237944806,2.0083298789459194,175.65158717500051
317,1.865,3.9850000000000003,4.399186206638638,0.40906694999999993,-0.16588674999999997,-9.746833,154.9478973463991,2.2405681429243653,172.32604770444965
318,1.0833333333333333,3.4666666666666663,3.6317979537761387,0.6651527666666667,-0.1804895,-9.880858666666667,162.66394530422676,2.275534053634702,178.86964698524838
319,0.40499999999999997,3.7199999999999998,3.741950621864682,0.5929445,-0.23007595,-9.9062485,173.79518714689416,2.4913836270014365,172.87762182125533
320,1.9733333333333334,2.6533333333333333,3.306272513332059,0.6681090666666667,-0.24029486666666666,-9.897787,143.36990359523475,2.7864185777283943,169.8412883028529
321,0.775,3.075,3.1710681500899653,0.4097427,-0.20125965,-9.810127999999999,165.86641670726786,2.815766438027193,174.03052957373114
322,1.46,2.7466666666666666,3.110328694655275,0.5524427333333333,-0.1860982,-9.804913666666668,152.02002774908152,2.6590043013348588,167.63872333245038
323,1.0,2.355,2.5584100114177963,0.5985552999999999,-0.3176204,-9.984147499999999,157.0020594704071,2.5617234357775764,161.032740657249
324,2.223333333333333,2.5500000000000003,3.3826685555229106,0.4746203666666666,-0.31162656666666666,-9.877077333333332,138.9194727390741,2.6612853757711177,159.14745264770255
325,0.905,2.965,3.0999223783532677,0.5342756,-0.21938045,-9.737866,163.0393158600913,2.7538400252668196,153.20507732002608
326,0.8799999999999999,2.55,2.697478196470915,0.2912589333333333,-0.15615452999999999,-9.962672,160.9708254544842,2.414548865575289,163.6485526383181
327,1.255,2.025,2.3822246168344225,0.18182575,-0.13853818499999998,-9.872157000000001,148.21788874034235,2.2753691515410273,135.01706755371413
328,-0.006666666666666654,2.6666666666666665,2.6666749939690146,0.5883404,-0.1762233,-9.904226999999999,180.14313570980258,2.1931994706230853,162.2631516593475
329,0.5,2.75,2.7950506251408087,0.41565355000000004,-0.16722135,-9.784392,169.7026425499426,2.1854593112403706,155.47732064764455
330,1.8766666666666667,2.066666666666667,2.791318910798796,0.39645866666666674,-0.19426363333333332,-9.737330666666667,137.76069601477457,1.9245324991372381,154.36010755824665
331,1.615,2.6799999999999997,3.1286934105243294,0.18657174999999998,-0.1218565,-9.9271545,148.938102378609,1.8060253236112187,155.5259001261638
332,0.7200000000000001,2.2866666666666666,2.3972837080700073,0.3595024666666667,-0.15105570000000001,-9.758636,162.53026343556238,1.6542130696208668,153.61569200733106
333,0.255,1.715,1.7338484879405478,0.46068374999999995,-0.12603815,-9.851540500000002,171.54519816691862,1.6176131338903654,149.8520728737398
334,0.3466666666666667,2.6966666666666668,2.7188416903240067,0.2309179,-0.07794194,-10.036350666666666,172.6798514282713,1.7096526854146321,158.84586639724972
335,1.37,2.15,2.5492192791447685,0.5947335,-0.1231722,-9.8245705,147.50157564670158,1.8638225079627868,161.5261934146306
336,0.24666666666666673,2.1866666666666665,2.200528575600005,0.3321090666666667,-0.08756230000000002,-10.019516666666666,173.56702340151705,1.8880201205686002,171.05406567035905
337,-0.85,2.3449999999999998,2.4942176186921823,0.3641379,-0.07927735999999999,-9.7859935,199.91532572168614,1.9406134440579308,167.81908392099447
338,1.1466666666666665,2.3633333333333333,2.6266791001663967,0.5058471,-0.08861454666666667,-9.834136,154.1275442520716,1.7291489585810462,172.38315068743353
339,-0.365,2.755,2.7790551109029895,0.3693913,-0.06868686,-9.651688499999999,187.541309935777,1.7624152724026463,176.97169149402563
340,0.23333333333333336,2.5966666666666662,2.6071219652944735,0.5143608666666667,-0.08985118666666665,-9.713207,174.8687300497998,1.8306735563896137,170.61982958371124
341,0.585,3.055,3.1104542466992053,0.5231382499999999,-0.31727550000000004,-10.009195,169.16935892117849,2.346490456444091,165.98310014359825
342,2.2333333333333334,3.686666666666667,4.309571069978972,0.5801717666666667,-0.3168423666666667,-10.063295,148.81528668085485,2.0074758245083,174.9635639199953
343,2.06,2.325,3.105945154979391,0.39181560000000004,-0.32777455,-9.9668375,138.46172453288955,1.9788355353874831,166.92986697536466
344,1.4566666666666668,2.52,2.910482661953621,0.5830203333333333,-0.2954854333333333,-9.926099333333333,149.98093387730313,2.6672653324604614,164.75678402778266
345,0.23500000000000001,2.2800000000000002,2.29207239127964,0.51109115,-0.2341386,-9.789515,174.11834587811904,2.4864627036526383,168.8719294117049
346,1.1633333333333333,2.27,2.5505952741661644,0.5002429333333334,-0.05276969866666666,-9.893745666666668,152.8746684234138,2.2536983162883315,174.05996274769936
347,-1.1549999999999998,2.6399999999999997,2.8814372747609123,0.5375110000000001,-0.1791983,-9.7311645,203.6173333481299,2.3911811477801925,177.78563493265446
348,1.2,2.8166666666666664,3.0614458784228304,0.6583815666666667,-0.28254946666666664,-9.932667666666667,156.93790204949988,2.328492209633323,169.52468648024043
349,2.34,3.06,3.8514922282846586,0.6168802,-0.23083294999999998,-9.6218535,142.6055689596027,2.1769857287992154,165.76044568165403
350,0.5750000000000001,3.255,3.3053432849657107,0.5085296499999999,-0.08165729,-9.912310999999999,169.99221147479392,2.0865941658402893,183.11524867668908
351,0.5399999999999999,3.0666666666666664,3.113802488142487,0.5477077333333333,-0.14057854666666666,-9.831489333333332,170.0223952751972,2.0234921182559056,183.64015390499233
352,0.9249999999999999,3.325,3.451128693810537,0.4655055,-0.15746265,-9.7708765,164.46900150179417,2.0591407295142763,183.4114691219747
353,0.9933333333333333,2.7633333333333336,2.9363169171306382,0.7676469666666667,-0.11030472666666664,-9.840483,160.2403683208394,2.0947226831904326,174.08456818102263
354,-0.47500000000000003,2.96,2.9978365927998323,0.63076645,-0.0253130795,-9.854167,189.10892706369285,1.893678183056475,179.87912300736656
355,-0.006666666666666672,3.47,3.4700063962610406,0.5751046333333334,-0.028565243333333334,-10.065241333333333,180.1099435951637,1.9890214616812092,188.60557508660384
356,0.465,4.82,4.8423253383704505,0.67210545,-0.029239175,-9.975319,174.50236122735225,1.9207081431410569,185.50127317749326
357,1.9866666666666666,3.8366666666666673,4.3198326517514625,0.5685034,-0.14636323333333331,-9.675059333333333,152.65001816938874,1.877589387741402,184.02491183202386
358,0.47500000000000003,3.285,3.319126800862892,0.5354972,0.007635794999999997,-9.894592,171.7809567531188,1.7345203600605794,176.53624536577996
359,-0.7200000000000001,3.0966666666666662,3.1791885093448253,0.6894935000000001,-0.12876667333333333,-9.901799333333335,193.0775273143491,2.336267985267126,174.98988694417804
360,0.4,4.720000000000001,4.736880607977866,0.7315219500000001,-0.28619140000000004,-9.778175000000001,175.16683220514048,2.0553525623784084,157.45904202181765
361,3.5366666666666666,4.083333333333333,5.400040120955179,0.7278265666666668,-0.2833627,-9.740637,139.11544590775662,2.1724110406792696,171.12042443710942
362,2.26,3.98,4.576000583000902,0.70370015,-0.27879380000000004,-9.860790999999999,150.437235220499,2.3573639735417675,167.85107822928853
363,0.07999999999999996,3.733333333333334,3.734189164696927,0.6073548,-0.15092310333333334,-9.768500666666666,178.77415763914289,2.574923676585674,174.08662791834314
364,0.15000000000000002,3.715,3.7180227891236357,0.70904425,-0.31557665,-9.9803925,177.6910651434455,2.5488161796168773,180.71032573219205
365,3.72,4.403333333333333,5.761985884318018,0.7328598666666667,-0.3307158666666667,-9.765214333333335,139.8243473868738,3.364342886385824,195.82524005104287
366,2.425,5.11,5.654831825615104,0.7826171,-0.4025233,-9.964884999999999,154.65853293694698,3.8552663209100544,174.57040622953843
367,2.0766666666666667,3.6533333333333338,4.201611871117326,0.7922224666666667,-0.42616570000000004,-9.896001666666667,150.40737588315272,4.0118453969358505,166.4913405621848
368,2.435,4.635,5.234454017049957,0.7001507,-0.44332065000000004,-9.785962,152.3220944793248,3.825914122393449,160.52184423299568
369,2.24,3.3666666666666667,4.043051795650847,0.6685941,-0.47210236666666666,-9.676643333333333,146.37929530659238,4.016954279872375,155.05340174547314
370,3.59,3.8550000000000004,5.2658965249002545,0.79297415,-0.56050025,-9.827434499999999,137.0442816493084,4.017061491866282,139.77397207937193
371,3.5100000000000002,3.986666666666667,5.309775642733878,0.7351446666666668,-0.47834003333333336,-9.945180666666667,138.64851797557586,3.391214356563842,138.67027421756595
372,0.915,2.5549999999999997,2.713797148343164,0.6454362,-0.1888415,-9.750143,160.306982829785,4.034752068904329,163.01389637776188
373,1.0966666666666667,5.673333333333333,5.778014850859741,0.6728445666666666,-0.21036754333333332,-9.920280333333332,169.09316513776844,5.598851436492118,171.45279477290148
374,-1.365,5.375,5.54512224924106,0.73415035,-0.41008564999999997,-10.033179999999998,194.21168900146097,4.592290077231694,156.58315301440462
375,5.010000000000001,1.9333333333333333,5.369203473212848,0.7642407666666666,-0.48726346666666664,-9.806997666666666,111.0595507615089,3.947247518045577,179.8902801427112
376,5.2,3.785,6.428596861446828,0.6274286,-0.12688569999999996,-10.972565,126.01500739564764,4.049358226785267,129.5970854474651
377,2.5933333333333333,2.673333333333334,3.7238699095264343,0.5676473333333333,-0.7874870333333334,-9.634615666666667,135.87147496251293,4.633382087930122,159.16069513540785
378,8.754999999999999,3.96,9.602569778017383,1.0179285,-0.97851485,-9.592931499999999,114.20406503682085,4.145730580476965,143.46564380490247
379,2.033333333333333,5.493333333333333,5.856490271537114,0.8229547,-1.0549179333333332,-9.803283666666667,159.73758060086053,4.346980016991435,134.63656516206478
380,4.855,3.745,6.128821838900623,0.63712525,-1.02942415,-9.9557325,127.61857992686305,3.149172894212831,96.12113875481046
381,5.986666666666667,4.513333333333334,7.492405499163856,0.48658306,-1.0807793333333333,-10.062946333333334,126.96912425802205,3.993154692975255,115.91350647014772
382,5.73,2.45,6.23019846619989,0.7596699499999999,-1.2430925,-9.577763000000001,113.09377237731711,4.962176675885162,135.1483190565123
383,6.413333333333334,4.796666666666667,8.002664552319557,0.7492629333333333,-1.0820128333333334,-9.807418,126.74279876785464,6.651866936702561,133.1757483336543
384,6.3,4.525,7.751322827640091,0.9012989499999999,-1.04549535,-10.154655000000002,125.63477114089713,6.487953875813513,122.32643665926332
385,6.536666666666666,4.023333333333333,7.671043533474822,0.8257329000000001,-1.150474,-9.705421666666666,121.54321863569051,6.166687365134143,115.25861286949687
386,5.505,3.7800000000000002,6.674535016107709,0.9680184000000001,-1.0510465,-9.4352765,124.4317740282491,6.045585125851468,124.84307741722142
387,5.146666666666667,3.563333333333333,6.257103517795964,0.8078867666666666,-0.9656834333333332,-9.903193333333334,124.65943815176081,6.812569252850036,134.58053182456314
388,5.125,3.325,6.106696522571833,0.6281426999999999,-0.85376735,-9.9292345,122.93422263709658,6.229832349741681,134.0138069727369
389,4.173333333333333,3.956666666666667,5.748410017863549,0.5866118333333333,-0.8899065666666667,-10.137422333333333,133.46828479936664,5.830996773151488,135.9167119921692
390,5.9,2.49,6.4022001690478785,0.62510995,-0.831047,-9.935094500000002,112.82165422578952,6.135741889699154,133.2817072934987
391,4.953333333333334,3.9166666666666665,6.311698699987055,0.6681618666666665,-0.7990878333333334,-9.874065333333332,128.3077937193679,6.201844508629306,126.34935556994384
392,3.35,4.880000000000001,5.916903213028998,0.6514772,-0.7751434499999998,-9.7451065,145.56561776239596,5.472936114423997,131.0276064717133
393,4.51,2.3233333333333333,5.072161632335325,0.43009363333333334,-0.7131983666666667,-9.780859666666666,117.21988880358231,5.46497635418612,134.34957830665803
394,4.965,0.6799999999999999,5.011234078790873,0.6050885500000001,-0.6939171,-9.5000535,97.77970615484472,4.605903752266379,129.95138264587553
395,4.033333333333333,5.203333333333333,6.580098312175772,0.6419176666666667,-0.6903961333333334,-10.084566666666666,142.24968949464687,5.361799291497223,150.55669735684452
396,1.4100000000000001,5.245,5.4307060520115815,0.76567315,-0.5999407,-10.046465000000001,164.99032222125274,5.74228712067762,143.88506611137004
397,2.15,2.6133333333333333,3.3836082566318706,0.6385029000000001,-0.45461330000000005,-9.926309999999999,140.56203390752583,4.780318505463697,143.74487126461682
398,2.58,2.51,3.5989221630496377,0.53927075,-0.5768009,-10.028525,134.2110549977154,4.733863760849285,142.15029018030756
399,5.783333333333334,3.17,6.5925477985014815,0.6351873333333332,-0.578157,-9.993539333333333,118.67081190619629,4.26178791362685,154.20199376121028
400,3.42,3.92,5.200436537628642,0.5541133,-0.9548830499999998,-9.7351525,138.9075590711275,4.205027859723795,133.2827207840428
401,4.16,3.49,5.428101359042675,0.6818294333333333,-0.6905369,-9.984491666666665,129.97999732361234,4.91403409251885,136.2114599856159
402,3.36,3.7,4.996388565295639,0.568731,-0.73504585,-9.558115,137.76411907792064,5.058288419865342,135.98716332293105
403,3.926666666666667,2.43,4.616748030826542,0.65347,-0.5982828333333333,-9.902432666666668,121.72630755700973,4.71525623183038,138.88112462797383
404,2.385,3.0,3.83184358398804,0.3409656,-0.5558432,-9.778073000000001,141.52469549908696,4.598043301810333,150.0555131522218
405,3.8700000000000006,3.7866666666666666,5.412386330097491,0.7407312666666667,-0.6563866333333334,-10.028206,134.37457156489876,4.279322813639879,143.54760905272988
406,3.95,4.46,5.955045233254779,0.71538615,-0.72085435,-9.9559115,138.4827022366482,4.315502497442422,145.798770596172
407,4.31,4.47,6.206390455978222,0.6358161333333333,-0.6767876999999999,-9.642170666666667,136.04809377033413,3.966151435239555,146.66258126190013
408,2.82,3.7699999999999996,4.7067842741431205,0.68050495,-0.60204295,-9.740779,143.220617123766,3.950968836573542,143.1129496415121
409,4.373333333333334,2.5166666666666666,5.044536555064781,0.5260666333333334,-0.7010048333333333,-9.613346333333334,119.88636865997039,4.238127971636424,144.61528540548306
410,4.25,2.655,5.009849312786749,0.7279114,-0.8231251,-9.413531500000001,121.9644278707415,5.262335194541424,129.23407464672658
411,4.373333333333333,4.5133333333333345,6.281451325065206,0.6694518666666666,-0.8830834333333333,-9.663583000000001,135.90618693754806,5.235754310552853,131.91234871501493
412,4.265,2.4699999999999998,4.927458874225318,0.79774265,-0.721445,-9.832102500000001,120.04598021961888,5.049829074091843,129.97819343199632
413,4.093333333333334,3.063333333333334,5.111107037159036,0.8086061666666667,-0.555457,-10.121701666666667,126.78952068286384,4.969561491572668,139.60705272580174
414,0.48500000000000004,5.915,5.934780008369875,0.6069357000000001,-0.47392305,-9.952249000000002,175.32900231736528,6.008564033862204,133.7272629720555
415,0.9366666666666666,4.420000000000001,4.517964511403138,0.7694189000000001,-0.32029156666666664,-9.828135333333334,168.0571735020653,6.4092766808222175,147.06014102903325
416,1.97,4.36,4.783618455942782,0.6851452,-0.37758185,-10.102840999999998,155.71795159144892,6.464321473885407,141.26677983628443
417,2.5000000000000004,5.086666666666667,5.66636980799392,0.7723892,-0.3455627666666667,-9.779236,153.8720308825685,4.334130976191168,161.691893015489
418,2.1799999999999997,4.375,4.887103858158406,0.5973913000000001,-0.31800229999999996,-9.909892,153.5470357197506,4.436211512455012,162.41686419953595
419,3.016666666666667,4.616666666666666,5.513091892363877,0.6387510666666667,-0.4606836,-9.740203,146.870809616725,4.550188528758536,151.57178075182313
420,3.2249999999999996,3.74,4.93694701124316,0.6873176000000001,-0.42176955000000005,-9.631028500000001,139.2391576554824,3.6734759881632084,148.9049491945198
421,2.703333333333333,4.003333333333333,4.8293675227622215,0.6742476000000001,-0.3578669333333333,-9.830818666666667,145.99355973071093,3.871568263756438,155.19276281874207
422,1.65,5.335,5.583623546393966,0.6593614999999999,-0.46637570000000006,-9.8540985,162.85661241169265,4.00869361907662,142.43489656418217
423,3.3900000000000006,3.0866666666666664,4.583501797992591,0.5878994666666667,-0.3516077,-9.881258,132.3128253673354,4.310665871620128,144.30198128369506
424,2.035,4.574999999999999,5.006300456860115,0.6136011,-0.43141035000000005,-9.861305000000002,156.05639858685484,4.7263450097591635,154.33337943352674
425,2.7533333333333334,3.4566666666666666,4.418165662357577,0.5737345666666666,-0.5931285000000001,-9.558120666666666,141.4740809240136,5.243420862110778,140.64745889898197
426,4.88,2.7350000000000003,5.592541963806885,0.7024983499999999,-0.70302585,-9.854737,119.22788489094053,5.229792732731162,132.22764623957593
427,4.076666666666666,2.6299999999999994,4.850199301056333,0.47665956666666665,-0.6095443666666668,-9.627238333333334,122.80172356466339,4.862419997114803,136.12360862929657
428,3.185,1.97,3.744479455825176,0.3089769,-0.5763944999999999,-9.786651500000001,121.72148389317839,5.228700090691978,136.0363332743701
429,3.266666666666667,2.1533333333333333,3.9118959352553784,0.4791378,-0.4908188,-9.777021666666668,123.37607150958496,4.861190362710405,142.23385159487248
430,1.325,2.415,2.7544164827090833,0.5301949,-0.5685911,-9.951414499999998,151.25844431401106,4.575903856924581,137.86016744189675
431,3.346666666666667,1.5166666666666666,3.6739405047645475,0.3890083,-0.44600466666666666,-9.956893333333333,114.35994796257911,4.45888426391272,137.609007262669
432,0.47,3.275,3.308516944308805,0.32187305000000005,-0.56729975,-9.705919999999999,171.84175759768334,4.602982806688349,157.99866347253536
433,1.87,2.8433333333333337,3.402730252625211,0.6325924666666667,-0.3082502,-9.919638666666666,146.68019140059874,4.849494051432867,144.07415427374997
434,1.8450000000000002,4.535,4.895215826908409,0.6371487,-0.3700545,-9.933303500000001,157.89664201599442,4.451766738024442,140.93627797193562
435,2.8800000000000003,4.0200000000000005,4.943802468799209,0.5071145,-0.3902459,-9.691621666666668,144.40321037446319,3.792255781553225,140.0690283574908
436,3.295,3.59,4.8714382003636,0.7397826,-0.40300515,-9.801258,137.45933475030793,3.6319810778029784,137.76064902414743
437,2.5233333333333334,4.09,4.804632240630975,0.4912262,-0.4904329666666667,-9.879745666666667,148.35438319419444,3.473173951229065,158.7985926796191
438,3.655,3.78,5.256237477421575,0.68345455,-0.51561085,-9.871573000000001,135.9658945542465,3.0634983953530157,171.40408856307903
439,2.063333333333333,4.1466666666666665,4.630847928902192,0.7662446666666667,-0.4108627,-9.771408333333332,153.5756473069072,3.041047916215854,151.68920584488072
440,3.575,4.244999999999999,5.54772477499994,0.8182908499999999,-0.6898513500000001,-9.9091655,139.91206526995293,3.679313216203464,142.87045102325132
441,3.8366666666666664,4.033333333333334,5.564481901797835,0.8697769666666666,-0.5188726333333333,-10.003032333333334,136.43599643041176,3.4207102436444026,149.98471692069805
442,1.475,3.0999999999999996,3.4327105232213615,0.7963465000000001,-0.46352875,-9.453847,154.57138394543838,3.508435290021581,152.3147618887257
443,1.7233333333333334,4.293333333333333,4.625692156342168,0.8352098666666666,-0.42880466666666667,-10.044747,158.16072486422937,3.7676882514606422,150.8724035536349
444,2.025,4.775,5.185725718322907,0.8061254,-0.47312730000000003,-9.9923635,157.05814058676143,3.605501282706088,155.75647941275474
445,3.2733333333333334,3.03,4.459329389045559,0.7563000666666667,-0.3700822,-9.911470000000001,132.78480178725275,4.133631576916686,153.31404864275086
446,0.91,4.47,4.561504050687285,0.75887415,-0.27166475,-9.778156,168.51480043655434,4.892594347994751,153.06276343599237
447,1.7233333333333334,6.213333333333334,6.4469944329074425,0.8381591,-0.3171302666666667,-9.797429000000001,164.55155600381312,4.50949209404985,151.56577613938362
448,1.415,3.5999999999999996,3.8677628387392886,0.9392878999999998,-0.1760461,-9.84262,158.56413439631982,4.354729633493726,165.73332678395315
449,1.9400000000000002,4.573333333333333,4.966989118401461,0.6904117333333334,-0.2358105,-9.789460333333333,157.0493428091626,3.700225340676889,151.47301471641222
450,1.77,4.5,4.834920389474273,0.8107519000000001,-0.2270049,-9.704286,158.56258789857884,3.0403993833976073,159.14461668581436
451,1.8533333333333333,4.2,4.590064213877284,0.7394823666666667,-0.3259570333333333,-9.820883333333333,156.22013334829404,3.2621975499640072,169.16363109635026
452,2.4050000000000002,3.74,4.4456053260328705,0.7443197500000001,-0.3446535,-9.869297,147.278770555029,3.89928043667775,170.75604300248108
453,2.1133333333333333,4.036666666666666,4.5555968803108415,0.7920082333333335,-0.33602003333333336,-9.745271333333335,152.39471040209375,4.187530345363957,165.4759171629073
454,1.705,3.465,3.8613087117225007,0.64565305,-0.38181390000000004,-9.942317500000001,153.82087227041876,3.7502936345710327,167.6944967390456
455,1.8966666666666665,4.163333333333333,4.574314683579476,0.7394033999999999,-0.32538269999999997,-9.902762,155.53785640541864,3.487070220741871,163.68840319468387
456,1.0550000000000002,4.1850000000000005,4.315700391623524,0.7154327,-0.3178588,-9.966603,165.87369493820026,3.5119017237146473,162.32458983869313
457,0.6733333333333333,2.6033333333333335,2.688942204167632,0.6317458333333333,-0.16110066666666667,-9.755685999999999,165.5075689114237,3.356688201674239,160.90717126026001
458,0.66,3.435,3.4977568505067977,0.76717035,-0.2987012,-10.20306,169.13600748438478,3.0312218527612114,164.65064490245467
459,2.4133333333333336,3.7733333333333334,4.4781467894779015,0.7193741333333333,-0.24578913333333333,-9.827432666666668,147.42024191012078,3.000472306799953,168.7045233802241
460,1.12,3.7800000000000002,3.942204903592261,0.71691835,-0.22650769999999998,-10.0377945,163.51630446587842,2.9905652867419334,160.13935809509974
461,0.7733333333333333,3.5133333333333336,3.5973331510707696,0.6376926333333334,-0.2681889233333334,-9.836112,167.6007108061379,2.7203288914256216,154.2649779348091
462,3.08,4.105,5.1304175971830075,0.67881915,-0.30238675,-9.6388195,143.1395425982322,3.063026525351675,136.70062295501805
463,2.026666666666667,3.3366666666666664,3.9033418395921293,0.5749138,-0.23469183333333335,-9.817156333333335,148.74396706893464,3.6365450635080094,130.32862196465044
464,-0.925,3.415,3.537914150306909,0.38956525000000003,-0.2294351,-9.806481,195.1398243910274,3.3161496455608575,127.9795793701949
465,2.8833333333333333,2.8633333333333333,4.062679608028783,0.49006333333333335,-0.37362266666666666,-9.721091666666668,134.8002608277626,3.394183203527833,131.96745277611444
466,3.9299999999999997,2.48,4.646035980458027,0.32224539999999996,-0.4161941,-10.04182,122.22926133177695,3.902702959648121,131.3482277255044
467,2.063333333333333,2.653333333333333,3.360725836182533,0.4565792666666666,-0.4015350666666666,-9.923785,142.1378514340705,3.4589745879550793,132.45918268147292
468,3.025,3.865,4.906624441404148,0.49286725,-0.33798145,-9.8946845,141.96732811689688,2.6877920927540333,129.19459013588366
469,2.1666666666666665,3.2699999999999996,3.92202063591715,0.43114066666666667,-0.3345337666666666,-9.883478333333334,146.4880593017545,2.79587241993536,145.62900968905376
470,1.6099999999999999,2.87,3.2904151066961433,0.68508835,-0.27045650000000004,-9.972753,150.72265929903537,2.8680558708007133,140.91725630488787
471,1.78,3.4266666666666663,3.8609151362961858,0.5878018333333334,-0.3088089666666667,-9.983635000000001,152.57056314509086,2.5281592475759402,177.30833090275712
472,2.2199999999999998,2.83,3.5962885158499254,0.6095056999999999,-0.30799014999999996,-9.916903000000001,141.89621853941412,2.65408960557228,159.8175008802119
473,2.02,4.16,4.623724345566408,0.6143279,-0.33902116666666665,-9.864357666666665,154.13012621475968,3.1007059718212804,149.09242802342146
474,1.545,3.725,4.03228046694317,0.525295,-0.34838240000000004,-10.035362000000001,157.49670290542952,2.661917263616255,136.65422631720045
475,1.82,3.2733333333333334,3.7447972331318837,0.4913504333333332,-0.3495574666666667,-9.761136333333333,150.94388883278856,3.0204798157378727,146.66473600204716
476,3.4450000000000003,2.6100000000000003,4.321100882283091,0.66605145,-0.46283365,-10.1099,127.13411172959516,3.1883858421840188,150.39766171602372
477,2.4133333333333336,3.5700000000000003,4.308310322024189,0.5509984666666666,-0.43060840000000006,-9.751739666666666,145.95986309852566,2.5375994199399,149.19704302932874
478,2.15,3.7800000000000002,4.347895002627108,0.65059835,-0.3720718,-9.9951605,150.39370710110143,3.72333054392164,129.4271433285035
479,-0.22666666666666666,1.9933333333333334,2.0061741762179737,0.5159956,-0.49049303333333333,-10.073731333333333,186.48481152054586,4.7262800401718765,128.91615518750842
480,4.12,1.305,4.3213989182097405,0.40820955000000003,-0.39525580000000005,-9.59667,107.5498784810719,5.040059261483787,136.44647716682877
481,3.2099999999999995,2.3733333333333335,3.9913551420712876,0.45653089999999996,-0.47858690000000004,-9.888546,126.46459252351957,4.742154875750272,128.62540725298612
482,0.28,2.495,2.510652392963717,0.42898375,-0.35435140000000004,-9.7907755,173.60076810244587,4.822282424716786,139.8003534572863
483,4.07,1.843333333333333,4.467332568594634,0.3029117,-0.4111483,-9.677541333333332,114.33730972064771,5.363950831097357,162.22974841412926
484,1.555,3.765,4.073053948384629,0.56684095,-0.18250824699999998,-9.7318505,157.58281167456624,6.287324427748671,162.31071204903358
485,2.24,3.6566666666666667,4.287423021455527,0.47434266666666663,-0.5183022666666667,-9.879612666666667,148.5308791991939,5.964371868262602,152.75994944785458
486,2.815,3.74,4.6798039812612995,0.5507528500000001,-0.39127999999999996,-9.947290500000001,143.0491557736133,5.625107674570694,155.32440505829524
487,3.643333333333333,2.64,4.498230781375807,0.5713249666666668,-0.4760052666666666,-10.005187999999999,125.91005629735164,5.200003747577688,155.9309864165388
488,-0.45500000000000007,2.435,2.477120373618234,0.43713265,-0.57144335,-9.9409315,190.57812231580044,5.604528897669613,156.6266549462462
489,1.59,1.08,1.9220303226986162,0.09028718999999999,-0.62483705,-10.535055,124.18243945222169,5.784974998168578,152.3994024588928
490,2.026666666666667,1.1933333333333334,2.3517712992738877,0.24237056666666668,-0.35857046666666664,-9.540546333333333,120.48342068440638,5.511078177104678,140.0975427172056
491,-1.47,4.455,4.690796126407055,0.143976,-0.60164905,-9.789576,198.23050655400704,5.048545043508282,151.61649640278586
492,1.3233333333333335,3.8233333333333337,4.045551720735815,0.5819088333333333,-0.23985886666666667,-9.70715,160.93137585403434,6.004642721273729,151.90368686189913
493,2.845,1.145,3.066589688029393,0.8715877999999999,-0.07316041499999999,-10.2061665,111.90916168727209,5.525715725884841,165.46006355593755
494,-2.9933333333333336,6.533333333333334,7.1837047566848256,0.6008027666666667,-0.13288715666666667,-9.949057,204.541025488889,5.62691365851973,151.17171944444468
495,1.21,2.455,2.736828249146048,0.568345,-0.31515645000000003,-10.005962,153.77314794098174,4.689234204335572,162.37056266550377
496,4.973333333333334,0.9666666666666668,5.0661761548741975,0.3898262466666667,-0.5077160666666667,-9.836312999999999,100.97347825920423,4.784095435274891,145.93909118319218
497,3.7199999999999998,2.255,4.349284663677727,0.3904271,-0.6535511,-10.094961999999999,121.20092230831165,4.361591973664408,138.0563843066381
498,4.016666666666667,3.983333333333333,5.654603924801292,0.5748806666666666,-0.7373884,-9.748944666666667,134.76049152411352,4.131023083071827,118.74092300596965
499,3.545,3.2350000000000003,4.797800501969379,0.7001623,-0.91345865,-9.8848165,132.37600644542994,4.861798491458894,139.50510178301232
500,3.2866666666666666,3.6200000000000006,4.887964537424245,0.4676426,-0.6641996333333333,-9.563963333333334,137.76977335558976,5.400293408969168,140.61984228599428
501,2.2199999999999998,2.545,3.3767118593090637,0.45736385,-0.5687622000000001,-9.6191755,138.90632043711005,5.538628020328982,143.41817351743555
502,4.153333333333333,3.9666666666666663,5.740822572463572,0.44232099999999996,-0.5666129,-9.611411333333335,133.67867283006524,5.687175576103353,133.72757140309625
503,3.6500000000000004,2.745,4.565887387806909,0.6018964,-0.62904695,-9.8996235,126.92897453788325,5.908713359894027,138.27129890378527
504,2.85,3.7866666666666666,4.7380917112316725,0.6501397666666666,-0.6910466,-9.932733333333333,143.0507896670686,5.880740638435152,139.09447908381955
505,3.85,3.3200000000000003,5.082155239315081,0.55654285,-0.56252935,-9.714363500000001,130.76148207848934,5.5189728554058455,139.74779450926144
506,3.956666666666667,3.393333333333333,5.2107205016055165,0.7358779333333333,-0.5939297666666666,-9.907704,130.60526517699986,5.677528312158916,138.22741371957596
507,4.35,4.115,5.985245712991058,0.51319425,-0.6191682000000001,-9.9561135,133.40400670095173,5.591090346241199,137.88977523038173
508,5.12,3.8499999999999996,6.402922205509398,0.5516007666666666,-0.6956568333333334,-9.904539,126.90952702950864,5.582002480703264,132.1495105126999
509,3.935,3.185,5.060878618524531,0.5120868000000001,-0.6491187,-9.437256999999999,128.9715857846399,5.514087693084435,141.82179758348994
510,4.343333333333333,3.776666666666667,5.753296111111431,0.5996726666666666,-0.6955844333333333,-9.912835,130.99471238700716,5.091766180103725,141.16593504623154
511,4.78,3.87,6.147400003020018,0.6773085999999999,-0.5064128,-9.286905,128.97198759711708,5.21334817638759,144.10768397525646
512,2.3233333333333337,4.79,5.322536516649987,0.4777696333333334,-0.5087263666666667,-9.819793333333333,154.16498083657893,5.247345770411823,154.53620825358644
513,3.6,4.380000000000001,5.667374865051136,0.758708,-0.39526530000000004,-9.609540500000001,140.60040868402317,5.123469996603283,146.79899714842875
514,3.4033333333333338,4.663333333333333,5.770941178077699,0.7238236333333333,-0.4765321666666667,-9.869038333333334,143.90599010778496,5.046670768472114,147.04089923965878
515,2.39,5.645,6.128591072895021,0.6945740499999999,-0.49063285,-9.8671,157.10772532321116,4.568772007189172,138.0056707896376
516,2.94,3.9866666666666664,4.952085924330855,0.7401539,-0.4326855666666667,-9.994788,143.61295748541062,4.754613444535492,160.5418793834368
517,2.415,4.625,5.21633736313441,0.68655515,-0.29475325,-9.7459435,152.46533289728808,4.327729390675685,158.6514359796958
518,2.8866666666666667,3.236666666666667,4.335895330097053,0.5770324666666666,-0.4617182,-9.994482666666666,138.2775779904987,4.300436018007978,155.77980220718612
519,2.73,5.045,5.734601208821281,0.8104548,-0.39918890000000007,-9.794204,151.62476832466436,4.2291877141138094,154.7516893012317
520,1.4533333333333334,5.796666666666667,5.975475759659334,0.8313675666666668,-0.4093510333333333,-10.10613,165.96826447340823,3.678277165045051,165.99897803063473
521,2.08,4.75,5.184494469426318,1.0703502500000002,-0.25163755,-9.691685500000002,156.39067456319927,4.650147309114178,163.7345594533116
522,1.14,5.243333333333333,5.365492931523044,0.9652931333333333,-0.2348634666666667,-9.992209333333333,167.7653763560959,4.8803786059054595,164.1150705677715
523,1.7349999999999999,6.31,6.5432518207443655,1.06715,-0.31345755,-9.978086999999999,164.68067632109663,4.169089874265378,166.7308483028183
524,0.64,5.62,5.65620769923865,0.9262287333333333,-0.2229711,-9.737301333333333,173.5236061517857,4.134265074394623,171.6037328725774
525,1.475,5.699999999999999,5.887142137062934,0.97688065,-0.21372000000000002,-9.846978,165.5345325089908,4.419610738847691,163.1244737595084
526,1.7533333333333332,5.863333333333333,6.118996331488142,0.9415426333333334,-0.25350053333333333,-9.836465333333335,163.4016282743606,4.456050008944432,158.41850307363924
527,1.375,5.66,5.824093990261524,0.8274847999999999,-0.30720295,-9.95697,166.38575693276553,4.6251302620099395,165.93901267489696
528,1.22,5.653333333333333,5.783056659339671,0.9252045666666667,-0.32003396666666667,-9.779142666666667,167.8588022095898,5.1664908049444245,159.53688732401835
529,2.615,5.04,5.676458042801126,0.8783053999999999,-0.31311485,-9.5698625,152.6217207838655,4.447543351354789,170.90720094707177
530,1.3,4.453333333333333,4.6388331577273725,0.8738356,-0.31849733333333335,-9.785858666666666,163.7550344480868,4.786422308582444,175.8656028763498
531,1.325,4.38,4.575653357137914,0.8290363000000001,-0.25479215,-9.974555500000001,163.19695783859964,4.893032156420522,175.30508572074896
532,1.7700000000000002,5.976666666666667,6.232340839417591,0.9577567,-0.2506367333333333,-9.800661666666668,163.55494526300308,4.673192268096187,180.74041725964898
533,1.58,5.91,6.116832481783811,0.9789002,-0.25605545,-9.756743,165.0795203114436,4.86090410670638,175.10959794194616
534,1.8833333333333335,5.513333333333333,5.825189593669286,0.9148152333333334,-0.2927781,-9.796495666666667,161.187879024896,4.547026360810143,179.28737211025526
535,2.125,4.42,4.903372608356521,0.7721048500000001,-0.27240595,-9.796365999999999,154.35735186902403,4.526435370225581,167.8292691013461
536,1.5466666666666666,5.1033333333333335,5.331965786820426,0.8848688333333333,-0.2379998333333333,-9.999115000000002,163.1777574337665,4.813385078929869,177.88016877390635
537,0.8250000000000001,6.895,6.943944211639574,1.0189306500000002,-0.27520595000000003,-9.8721855,173.20908305238075,4.626238314990037,179.97538841237582
538,-0.17666666666666667,5.626666666666666,5.629430565426845,1.0257127666666666,-0.10449713000000001,-9.924911999999999,181.79261256015263,4.998181827367144,182.09065904708956
539,0.01999999999999999,4.73,4.730042187010298,1.0284083499999999,-0.18250655,-10.10294,179.75828658236873,5.126663447224325,184.06631877480598
540,1.5599999999999998,5.433333333333334,5.652204131198432,0.9180559333333332,-0.23795616666666666,-9.768618,164.022197474763,4.95715846398501,174.98734795025294
541,1.705,5.6850000000000005,5.9343662917447135,0.87273235,-0.20295144999999998,-9.958994,163.3525221106302,4.874324064763518,175.4233580135941
542,1.4100000000000001,4.94,5.136805525262397,0.9216074666666666,-0.23681699999999997,-9.800883,164.10437295607898,5.071322433822292,169.80369642529882
543,1.2999999999999998,5.285,5.442097856949047,0.7499948000000001,-0.11799694999999999,-9.765226,166.21622771788668,4.5451989230069625,174.93167880250243
544,0.96,4.636666666666667,4.7347930311557,0.8346684333333334,-0.19700043333333336,-9.927002666666667,168.32624093105042,4.476569136585528,180.46624227367798
545,1.055,3.545,3.6984631045119474,0.8025866,-0.11926800000000001,-9.8791275,163.44510259377176,4.295969549823515,177.715367154258
546,-0.06666666666666667,4.68,4.680473753352141,0.672809,-0.14681669333333333,-9.768532333333333,180.81430878032833,4.202424374207524,175.36752236113045
547,1.08,5.115,5.227477846048264,0.8943429,-0.13166521,-9.800458500000001,168.1068924213397,3.858949387851026,181.79089181797167
548,1.5199999999999998,5.43,5.638118346598353,0.9146198,-0.19832933333333333,-10.026052666666667,164.4027509837739,3.405490676738123,178.9884621306311
549,1.015,5.055,5.155635314980072,0.78009475,-0.15486385,-9.672441,168.67403672559007,3.0643889752318,184.88188067888123
550,0.9533333333333333,4.5200000000000005,4.6192378421762355,0.7150548333333333,-0.14254989,-9.730542333333332,168.11299647730624,3.209899088033909,165.04373463570226
551,0.22,5.67,5.67425254117308,0.91297425,-0.3407945,-9.8254935,177.7852380252517,3.092087392815989,157.3666501668629
552,3.6366666666666667,4.4,5.706078240565857,0.4228591,-0.3497429333333333,-9.777169333333333,140.44331820412714,3.459233234566827,161.04205071226968
553,4.8,1.455,5.015183921790067,0.40119085,-0.3298259,-9.9115535,106.82954462808635,3.497227250081709,154.69491678632204
554,1.5,4.733333333333333,4.964808484967933,0.6820816333333332,-0.28284196666666667,-9.836393000000001,162.45031588592062,2.9269857024016903,165.51220896322047
555,0.895,5.49,5.56225421943428,0.8776182,-0.38503585,-10.149476499999999,170.76801060608452,2.860375152273021,149.70443083605804
556,2.5366666666666666,4.016666666666667,4.749499217080564,0.7517619,-0.30394723333333334,-9.956564666666667,147.7516549773144,2.516826989720005,158.277255320602
557,1.365,4.075,4.297174327243059,0.59848085,-0.27434185,-9.730492,161.50658043333777,2.60684194211473,166.9444729460698
558,0.8799999999999999,5.28,5.352626139724547,0.6991776,-0.34861516666666664,-9.878466333333334,170.56326708650315,2.949587064045702,180.71543491799608
559,1.96,3.375,3.9022788794367043,0.71736935,-0.3619961,-9.7424855,149.87360891020913,3.503927054545601,178.5726840717249
560,2.1633333333333336,4.453333333333334,4.950026248421496,0.8029427666666668,-0.24422483666666664,-9.797782666666665,154.12520808854316,3.350268848948294,184.58845013812282
561,1.625,2.85,3.2803881880153742,0.86227955,-0.18168365,-9.741872,150.3230049197505,3.6597236098385904,188.1824272524068
562,0.09333333333333334,4.496666666666666,4.497633192012457,0.6276433333333333,0.08130806666666668,-10.002302666666665,178.81337346672345,3.642838183476601,187.99242365528048
563,-2.04,3.605,4.141513179655216,0.730113,-0.03910985,-9.623692,209.4826330924328,3.8684470750744344,173.1431399357794
564,0.09333333333333331,3.813333333333334,3.8144736669927917,0.5564943,-0.0004086700000000022,-9.768400666666667,178.60000441356786,3.330487913066572,143.94016761866936
565,0.585,3.4699999999999998,3.51890700114634,0.55248255,-0.14221695,-9.908754,170.44176859010466,2.7781662074009006,182.84586431274246
566,2.0066666666666664,2.876666666666667,3.5069271308956522,0.5920071,-0.14522978,-9.930943666666666,145.11326588043016,1.956930136892742,160.1925271294836
567,1.835,3.69,4.120517926139778,0.5293317,-0.18788815,-9.81582,153.58309551277588,2.567176790007288,142.97987394865686
568,0.8233333333333333,3.483333333333333,3.5791973264146493,0.6133935,-0.23707353333333334,-10.039812,166.71635485644384,2.8138356441315824,182.76364112043788
569,1.98,2.95,3.5523843925661556,0.627929,-0.08959647500000001,-10.0613595,146.1439075747381,3.4975314688226056,176.4160923279067
570,-0.040000000000000015,3.56,3.5602244227693562,0.5484999666666667,-0.21772706666666672,-10.043218333333334,180.6429172601673,3.2983021632477096,162.54344186633313
571,0.71,3.4450000000000003,3.517316785849166,0.5590438499999999,-0.058458260000000005,-9.839858,168.36770961356711,3.7762390895839753,149.34455858802914
572,0.8733333333333334,2.31,2.4694934309483823,0.567646,-0.04364662766666666,-10.033893,159.29888369591362,4.076331310340726,146.2268323349883
573,-1.5299999999999998,3.105,3.461160620142829,0.43213815,-0.09159682499999999,-10.29073,206.215090522965,4.0948504081012125,150.49292854331526
574,0.8400000000000002,3.0400000000000005,3.1538132066414715,0.5099115,-0.22646047000000002,-9.532137,164.56643650730993,3.9205991570947853,147.06162048119006
575,5.23,0.76,5.284779547811457,0.37100575,-0.34264375,-9.857804999999999,98.24590715932763,4.243030858474481,148.95058538961467
576,0.9266666666666666,2.393333333333333,2.56637020801348,0.5021130333333333,-0.4464007333333333,-10.047127000000001,158.8438041398875,4.165019360450483,143.01416827309242
577,0.07500000000000001,4.035,4.0356958133358924,0.39538530000000005,-0.39032855,-9.8836105,178.93690527550623,4.11776571085756,137.6622790810098
578,1.89,1.0333333333333334,2.153947643231446,0.4996205,-0.4401175,-9.798026666666667,118.66093487316036,4.062308278454663,146.1672284614734
579,3.1550000000000002,0.555,3.2033948565713097,0.5027942,-0.5176929,-10.0369855,99.96731902301816,4.116308399306013,140.9129807674939
580,1.2433333333333334,3.6999999999999993,3.9030408956494678,0.4132991,-0.18910680999999996,-9.915762666666666,161.44714148616006,4.158026438665686,150.69341426711338
581,0.9450000000000001,1.94,2.1578423704719567,0.58016985,-0.199744755,-10.1047185,154.03524267664787,4.123632296700629,138.5487615086261
582,0.11,3.013333333333333,3.0153385580389442,0.3868694,-0.2704335,-9.971370333333333,177.91130245420524,3.919227514100613,135.81123035480394
583,1.01,2.37,2.5761246325912404,0.51946045,-0.46805825,-9.8526055,156.9278684478375,4.554723871146499,152.83501494266807
584,4.073333333333333,1.6633333333333333,4.39932486311351,0.5750999666666666,-0.4621283666666667,-9.726991,112.18432536660094,4.226243003931383,149.17013102031342
585,-0.3,5.135,5.143732487582189,0.61743685,-0.4779164,-9.878816,183.33466096616465,4.149006052743888,147.69981742294226
586,1.8166666666666667,4.503333333333333,4.855253819549851,0.6894010333333332,-0.4629691333333333,-9.939236,158.06491982677505,4.162092426565167,162.37754001541396
587,1.04,3.0949999999999998,3.264900114602293,0.60259865,-0.47415745000000004,-9.662272,161.44125331650892,4.182874705961818,150.83890311997382
588,3.42,1.7033333333333334,3.820248377151531,0.6512532666666667,-0.5175554666666667,-9.895902000000001,116.455196669446,4.731412690780591,151.14025890902266
589,2.46,2.275,3.350230437828543,0.5481735999999999,-0.58986615,-9.8855845,132.76000662162434,4.77911976542379,141.62011968492462
590,3.8633333333333333,2.316666666666667,4.503793056603466,0.24426426666666665,-0.5341438000000001,-9.994055999999999,120.92465813195656,4.501460901227649,144.3752953494779
591,2.645,1.595,3.0884045152631363,0.44312555,-0.31896990000000003,-9.762689,121.07954928829919,4.613370378361776,146.64677682840755
592,1.9499999999999995,0.49,2.0105987389728517,0.5358661666666666,-0.49115960000000003,-9.962031666666666,104.10045857425611,4.6952299235165125,151.2050007205611
593,0.9450000000000001,3.865,3.9786800588977425,0.7928492,-0.44029155,-9.934392500000001,166.27948417374475,4.467259847424431,151.21289722360825
594,2.4933333333333336,5.456666666666667,5.997759013907734,0.7511435333333334,-0.3364302666666667,-9.643982333333334,155.49465659151747,3.7323912794362624,153.75044188429803
595,0.76,5.11,5.166059206068924,0.6846949,-0.4774689,-10.161455,171.56215519777282,3.0079351331965487,152.42703416473572
596,2.81,3.7699999999999996,4.700808388261071,0.6868932,-0.34200956666666665,-9.993960999999999,143.31833251095733,3.2776463901628823,174.32200315186978
597,2.075,3.8099999999999996,4.3376694535164155,0.82658385,-0.26870265,-9.9505845,151.45140780507185,3.728169102604328,162.07593523569108
598,1.97,3.6633333333333336,4.158800418346052,0.7393186666666667,-0.5055753333333334,-9.835568,151.75351427374574,4.401526245134575,162.30083318302385
599,4.380000000000001,3.795,5.792957033171729,0.9037739,-0.48769025,-9.739347500000001,130.89311005058568,4.620683505039064,157.2792731767634
600,2.3866666666666667,5.136666666666667,5.662707072467114,0.6567497666666667,-0.44668123333333326,-9.626534333333332,155.12491676940982,4.306948713026524,153.85249622461743
601,2.4050000000000002,3.98,4.649206143967007,1.0360740000000002,-0.5115616,-10.297485,148.88256425664324,3.8806834143688835,157.5317043672867
602,1.05,3.76,3.9036542943119166,0.7753961666666668,-0.30533656666666664,-9.886543333333334,164.41698186571796,3.812631034073453,169.38034472384487
603,2.475,4.26,4.925640242306832,0.62737745,-0.3874968,-9.819348,149.87443894481066,3.7665763518615316,164.00306561335938
604,2.7533333333333334,3.0233333333333334,4.088318791801155,0.5619321666666667,-0.4508333666666667,-9.693632000000001,137.6805658280233,4.321921009648751,154.1854800173029
605,3.115,2.42,3.9438373593379015,0.82975615,-0.40142695,-9.923314000000001,127.83228090855893,4.30864855311905,156.96043195744042
606,2.263333333333333,4.72,5.233496266030931,0.7403309666666668,-0.5073992333333334,-9.726623666666667,154.42032797553014,4.747174270334728,148.9562908951952
607,3.37,4.18,5.367414606521317,0.68392665,-0.5943803,-9.879995000000001,141.14096102809512,4.802860544393755,149.30058653292224
608,4.013333333333333,2.6966666666666668,4.8339380131631495,0.5711139333333333,-0.6378046,-9.869665,123.8743863663253,4.313044238742759,147.79919049420565
609,4.07,3.2,5.175680350487595,0.36982845,-0.48855060000000006,-9.8916845,128.1579618817226,4.459379905461407,153.94702421890145
610,3.1533333333333338,3.7399999999999998,4.890499114541105,0.6735344,-0.5840889333333333,-9.939590666666666,139.87612837720374,4.079759682671134,151.0018950242262
611,3.615,3.63,5.1212919047432095,0.5507357,-0.5267023,-10.0040885,135.11894134354947,4.2089442768305405,152.55208979397378
612,3.483333333333333,2.0933333333333333,4.0632812979399,0.5001919,-0.35858860000000004,-9.870291,120.98412432417018,4.154312180973915,159.22906079905857
613,1.08,5.605,5.707775553679376,0.49235255,-0.48300085,-9.993269,169.1263465091085,3.9640319008052134,164.11737462223402
614,2.67,3.073333333333333,4.070311821331172,0.7001192,-0.43836706666666664,-9.669691,139.02375834610717,3.859784016905069,165.51785644125596
615,2.8200000000000003,2.8200000000000003,3.987276830510987,0.38119665,-0.50145415,-9.838067500000001,135.0,3.522253842126006,151.59912902481597
616,2.8633333333333333,3.876666666666667,4.818164096132548,0.48185683333333335,-0.5075409333333333,-9.810587666666668,143.56918190880305,3.9840421590661745,157.293532241219
617,2.5,3.56,4.349201535185605,0.6913977,-0.44844155,-9.865923,144.93925629272186,3.6834336126994467,156.5929467616954
618,1.96,4.5,4.907514356657633,0.6662348333333333,-0.3479286000000001,-9.814307000000001,156.49918734593524,3.8107562095056426,165.84525457175116
619,2.3049999999999997,3.675,4.337206612650651,0.78520875,-0.28428244999999996,-9.9104495,147.92509493169894,3.7946219033470467,176.19034835476273
620,0.98,3.5566666666666666,3.6890437573353756,0.7678211333333333,-0.1577089,-9.900919333333334,164.61247138121044,3.5547806016140795,167.32386384909023
621,0.6300000000000001,4.27,4.316140048685222,0.884538,-0.0883642,-10.173960000000001,171.62206518522856,3.20301212781127,173.36150184855435
622,0.32666666666666666,3.02,3.037599754711261,0.7086437999999999,-0.20099029999999998,-9.793411666666668,173.83205385546205,2.903729570028676,167.78408447459492
623,3.02,3.74,4.805729946470057,0.7398866,-0.32096225,-9.8121305,141.09345149210486,2.8327218017574376,166.6270644314152
624,2.1766666666666663,3.1966666666666668,3.8667348060665265,0.6559127333333333,-0.3229733333333333,-9.872954333333332,145.76320966718532,3.1273597283702874,174.93019856323002
625,0.78,3.1950000000000003,3.2887374851575677,0.7353962,-0.30527170000000003,-9.806280000000001,166.29352650264264,3.6848571123878378,171.64594005093028
626,1.64,4.183333333333334,4.492782712025932,0.7936152333333334,-0.3342170666666667,-9.967543333333333,158.62254305192764,4.107551919207007,166.86013654982608
627,2.5,4.085,4.788176064636873,0.7105661,-0.41101645,-9.8029125,148.5606447930483,4.97002322130433,165.75015548545215
628,3.0,4.003333333333333,5.001202287250948,0.6326591333333333,-0.4240820333333333,-9.886379666666668,143.1726590325791,4.87910416047478,159.5581008771412
629,2.16,2.94,3.647616216846714,0.485889,-0.49031274999999996,-9.875551,143.70655523108837,4.281363445648132,161.8088231141128
630,3.933333333333333,3.263333333333333,5.109179716724582,0.5637049333333334,-0.45851256666666673,-9.779428000000001,129.6673613509866,4.786470012459227,154.15546628161823
631,2.35,4.025,4.659832238709391,0.6335919999999999,-0.54253325,-10.0757615,149.7485252166707,5.2882460460514515,162.0699526561329
632,2.683333333333333,4.3500000000000005,5.109690402394422,0.7445559999999999,-0.5339975333333333,-9.921669333333334,148.36181859882083,5.096281970631491,154.04150269099136
633,3.4450000000000003,3.935,5.228152644558672,0.6857534,-0.44931360000000004,-10.116634999999999,138.8090627645385,5.22002938693963,156.938775213739
634,2.6033333333333335,3.5766666666666667,4.422791200069064,0.7598258666666666,-0.5961414333333334,-9.645766,143.96707995307528,5.669173032376564,158.5767877212736
635,2.5300000000000002,5.13,5.718451204290744,0.8483025,-0.45789664999999996,-9.829612,153.7945690688549,5.474495059915406,158.26195544182968
636,2.9499999999999997,4.523333333333333,5.39860666196348,0.8878406999999999,-0.4049036666666666,-9.587745,146.92001508972382,5.244732316040721,154.07536153853945
637,2.185,4.98,5.437149553691617,0.8708134000000001,-0.4778222,-10.116805,156.35322200318961,5.6418124052970064,168.6431788193366
638,1.9266666666666667,3.9600000000000004,4.403150172534727,0.8328065666666666,-0.5086181666666667,-10.278183333333333,154.08301933528213,5.184448020648282,168.62168760984432
639,2.45,4.855,5.436832726532069,0.66516015,-0.3996181,-9.702895999999999,153.2640920643658,4.880568669624416,164.70207885314287
640,3.5866666666666673,3.9599999999999995,5.340906507533237,0.6540232666666667,-0.5544688,-9.942308333333335,137.84028336843272,4.6544204893828045,149.73338551440307
641,2.295,3.605,4.272715416265179,0.8156010499999999,-0.33579245,-9.954042,147.5389181310207,5.6675743709899855,167.58220152392963
642,1.45,4.656666666666666,4.87672152778593,0.7877083000000001,-0.3387266666666666,-9.833949666666667,162.73674256607978,5.039800113232801,159.46860498519527
643,2.66,4.155,4.932262718454177,0.7355889499999999,-0.40299345,-10.01321,147.3998877658623,4.132964145278629,158.5748664487599
644,3.7733333333333334,3.1566666666666663,4.918147606475997,0.6753477000000001,-0.4630187333333334,-9.66462,129.90266713830744,4.596344700264261,164.73761302608014
645,2.705,5.1,5.771281262640893,0.7323348000000001,-0.51487365,-9.6469,152.10397129764235,4.756877784208527,145.33226209603677
646,4.2,3.42,5.41437323303024,0.6141252333333332,-0.4958053999999999,-9.772803333333334,129.13846911763895,5.435546547505954,152.7990563429982
647,2.16,4.699999999999999,5.171569333682528,0.73846585,-0.69054935,-10.1531865,155.35621087815434,5.3984571816032965,156.8144407314676
648,3.0066666666666664,3.0066666666666664,4.251092544223982,0.49072370000000004,-0.4137944666666667,-9.696796999999998,135.0,5.928700373923772,155.9591645677821
649,1.44,3.82,4.0820248048305,0.7332994,-0.4334647,-9.851426,159.3694514611136,6.179655751210301,164.60274921125907
650,1.45,4.1000000000000005,4.348437641367627,0.6827552666666666,-0.49337839999999994,-9.78553,160.55034168280812,5.35570466078868,152.59634470781342
651,3.39,3.4450000000000003,4.831797766483276,0.7215419,-0.52765,-9.97139,135.46213394820597,4.917245201712504,153.92049465293016
652,2.1166666666666667,3.0666666666666664,3.725646616701647,0.5875941333333333,-0.46495369999999997,-9.693392333333334,145.3992919396192,4.961419563000254,154.48239851313434
653,2.88,3.285,4.367669062594588,0.6240111,-0.44703570000000004,-9.581704,138.76576589603727,4.704964654051569,152.8054114307637
654,3.3699999999999997,3.3333333333333335,4.738690986593107,0.5960986333333333,-0.5636520333333334,-9.857584999999998,134.68588398379717,4.6135806864994215,154.25968714711857
655,2.605,3.975,4.751395335067032,0.7939715,-0.5569822499999999,-9.9870975,146.78541192993936,4.621209541819106,154.47193697168592
656,2.7466666666666666,4.083333333333333,4.919858751183063,0.5738532000000001,-0.5448094,-9.726026666666668,146.09776525035218,4.973175227376485,153.90704571894256
657,3.08,3.285,4.501913612045885,0.7639962999999999,-0.5704502499999999,-9.8161135,136.8485026735015,4.7837495848001,153.1264576411337
658,2.4633333333333334,3.0533333333333332,3.922385699661007,0.6408814333333334,-0.5193477000000001,-9.758493,141.1137654341675,4.494558214535035,153.6344795405743
659,2.085,2.84,3.5226785033384798,0.86988815,-0.5226881999999999,-10.024235000000001,143.72589068323288,4.10429624797987,154.56812416195584
660,2.7266666666666666,3.323333333333333,4.297780211162248,0.5864597666666667,-0.4506611333333334,-9.976354333333335,140.64275555986225,4.150001773554553,155.81549767814278
661,2.68,4.075,4.876054629967743,0.69337355,-0.46428565,-9.918444000000001,146.69353835107313,4.021496921232536,153.88877959902135
662,2.8733333333333335,3.2099999999999995,4.307145590934855,0.5784600666666667,-0.43265909999999996,-9.802820333333331,138.17358731923684,3.762044722504678,157.83421040981938
663,2.8499999999999996,2.365,3.7028516974706784,0.38540929999999995,-0.4340341,-9.788398,129.6794828310359,3.399053075930311,163.82870882069938
664,2.4466666666666668,2.8200000000000003,3.7327928808804596,0.5758358,-0.33693923333333325,-9.927249333333334,139.06035852121883,3.117345534403896,154.98197702913467
665,1.47,3.58,3.8696882332035667,0.61766425,-0.4234942,-9.949428000000001,157.69803139964387,3.133958787138843,148.71734631836034
666,1.9600000000000002,2.986666666666667,3.5718758877646004,0.6248965000000001,-0.3463541666666667,-9.975491,146.73867575185636,3.090996603952414,148.89256530277447
667,2.55,3.0300000000000002,3.959461617984579,0.63096745,-0.42637695,-10.018884,139.9242510858408,3.049564469195356,148.18514640535403
668,2.9433333333333334,2.7466666666666666,4.025015581448004,0.38442413333333336,-0.4172446666666667,-9.792658333333334,133.01719071913917,2.863365451913691,152.5686868969603
669,2.215,2.325,3.2107875194348243,0.6434848,-0.49492674999999997,-9.846266,136.3894042305044,3.4304775303510655,152.09251200975845
670,3.8266666666666667,2.216666666666667,4.421502013625837,0.03354325999999999,-0.7032628666666666,-9.754361,120.05777293940736,4.458190879669018,104.98429998919254
671,5.16,-0.6900000000000001,5.205805618289742,0.31662124999999997,-0.7236952999999999,-9.7500225,262.4035366985661,4.168495229737035,99.05788812861766
672,4.046666666666667,-0.14333333333333334,4.049200091844347,0.05851278000000001,-0.48536730000000006,-9.824767666666666,267.9747929924105,3.8114340344095456,113.86892189228978
673,1.945,1.56,2.4931285717204346,0.01763042,-0.50342345,-9.921727,128.7277515902297,3.759120270644784,110.84052343448435
674,3.0833333333333335,1.0366666666666668,3.252781053777561,0.20127764666666667,-0.5837754,-10.127372333333334,108.5686546373533,4.440615768807412,115.50004711715802
675,4.88,0.605,4.917269514918532,0.14546272500000001,-0.7920350999999999,-9.842508500000001,97.05054176972492,5.0144427199570485,109.46605297896663
676,4.056666666666666,2.6933333333333334,4.868106578957093,0.3512517,-0.6661968,-9.841433,123.55657737332405,3.877112172985347,112.83588732206861
677,3.255,2.23,3.94494276439358,0.33819575,-0.58735835,-9.801057499999999,124.39977120626514,4.194316108442849,112.03850402718618
678,3.3533333333333335,1.13,3.538401633453306,0.29829676666666666,-0.6409802333333333,-9.815944333333334,108.60513370774004,4.184388251060055,111.82046180889274
679,4.19,1.6400000000000001,4.4989891601312495,0.37125555,-0.6873954,-9.879274,111.34639649109234,3.668537808249351,108.04518762760395
680,3.9766666666666666,1.5066666666666666,4.252090757532369,0.21144526666666666,-0.6463869333333333,-9.734465666666667,110.72440854192496,3.458309300878805,111.18629438245613
681,3.1399999999999997,0.8049999999999999,3.2414466061969254,0.1884339,-0.57847485,-9.929990499999999,104.36630345148185,3.755118849187104,105.05239233272778
682,3.9499999999999997,1.6133333333333333,4.266288706314151,0.3030795333333333,-0.6317237,-9.720121666666666,112.19051540927357,3.886185677270703,122.17281452399874
683,3.415,1.335,3.6663795442089344,0.4276705,-0.6551914000000001,-9.885932500000001,111.33213897797366,3.4299201531034864,104.11768455087244
684,3.186666666666666,1.2133333333333334,3.4096193160469443,0.27120626666666664,-0.6084201,-9.917712000000002,110.82768200155982,3.152660150469738,99.54304788000853
685,3.21,1.075,3.385042927855169,0.1479606,-0.82930215,-10.0963435,108.49919862617935,4.00650952694804,102.06949670962926
686,4.556666666666667,0.6200000000000001,4.598565030590924,0.4418813,-0.6240016333333332,-9.972626666666667,97.7324854560061,3.866158957448916,122.33763593714257
687,2.9699999999999998,4.26,5.1915543816883725,0.3617806499999999,-0.6127334,-9.627492,145.14194393467955,4.005914970313886,120.01494211210282
688,3.296666666666667,2.1,3.908086877282494,0.5277387666666665,-0.5825017666666666,-9.902129,122.48038394757268,3.98457243122649,119.806423463944
689,2.94,2.55,3.8910655656676254,0.14699873,-0.55141285,-9.7679525,130.93046179534096,3.8657016293958457,118.31235090106368
690,3.75,1.6433333333333333,4.093798607629392,0.5067108333333333,-0.6564739666666667,-9.789075333333335,113.63978096782922,3.6636738894594125,113.56841822958454
691,4.005,1.7,4.3503236977219055,0.38432115,-0.69070305,-9.713384999999999,112.97219756390278,4.203725654032781,112.11138146495993
692,4.223333333333333,1.89,4.626248174742489,0.4283648666666667,-0.7279444,-9.853173666666667,114.07820172805783,3.706057058460508,105.5421182411512
693,4.255,0.855,4.339896956408194,0.33124925,-0.6933408000000001,-9.7671475,101.34218095884962,3.4050785063631714,101.02982823026584
694,3.9333333333333336,1.39,4.171351682266358,0.23985993333333333,-0.6357639999999999,-10.021435666666667,109.43812767239115,3.949703787038071,109.03166410241481
695,3.535,3.0,4.635169933378302,0.30489900000000003,-0.65762005,-9.936257000000001,130.30976128275083,4.154546307231049,112.32285838375508
696,3.72,2.013333333333333,4.2292095353347365,0.44086849999999994,-0.6856604000000001,-9.919940333333335,118.39922461636374,4.080765941343733,112.01859843868132
697,3.33,2.1950000000000003,3.987668285689414,0.48617685,-0.64094505,-9.690941,123.37445884387839,4.155262895675296,108.91698815936918
698,3.9166666666666665,1.8266666666666669,4.321086614159777,0.3734496666666667,-0.6477248666666667,-9.996117666666667,114.97676889021413,4.091653289111242,109.77166640794518
699,3.63,1.445,3.90667766992118,0.3521065,-0.77061415,-9.868633500000001,111.68391531854839,4.560425672606976,113.33072701917845
700,5.09,2.0,5.467867121746346,0.32404673333333334,-0.6737231333333332,-9.941934999999999,111.40777897159774,4.1456884517769135,120.2969947978064
701,2.515,3.0549999999999997,3.9562929472932984,0.37812989999999996,-0.6299880999999999,-9.7613325,140.54599800939545,4.020613759404188,114.22328977165371
702,3.396666666666667,2.4499999999999997,4.187219848379969,0.3678423333333333,-0.7012705333333334,-9.900422,125.78744249905937,3.975812561861913,122.3169099658176
703,4.58,1.96,4.980945046118802,0.5429432,-0.6835003500000001,-9.959244,113.13228813742589,3.8058093943557854,120.08432846691464
704,2.7566666666666664,2.35,3.6218018607754803,0.4107929333333333,-0.6394721,-9.891435333333334,130.44091954403063,3.9821612569746665,109.53247191630967
705,4.655,1.75,4.972402169575484,0.5001656999999999,-0.740498,-9.768936499999999,110.567548065498,3.800276015714127,108.84925677893008
706,4.14,1.3966666666666665,4.368853581680125,0.33132776666666663,-0.6389824000000001,-9.813629999999998,108.61550620425987,3.8234211444290036,108.68929071847047
707,3.5300000000000002,2.015,4.063986466400127,0.42016385,-0.5763757,-9.949278499999998,119.69759312984966,4.0802410126711655,103.10446245146976
708,3.5366666666666666,1.5966666666666667,3.879963500283718,0.27308124,-0.6079344,-9.974973333333333,114.27557054235044,4.133374203680652,106.39191246992087
709,3.645,1.78,4.055878355735297,0.22586433500000003,-0.7311011,-9.9264525,116.00488684353272,4.096800294019238,112.61089338294367
710,4.956666666666667,1.0733333333333335,5.0712634931924825,0.26938956666666664,-0.6970008000000001,-9.766267000000001,102.1901754451594,4.093946285899076,108.64226962393428
711,2.885,1.23,3.1360558258241387,0.14797922,-0.6736311500000001,-9.861248,113.07634333238433,4.296155513339539,115.79107050662267
712,3.7566666666666664,2.373333333333333,4.442654699719245,0.4335670333333333,-0.7187617333333334,-10.017544333333332,122.26099129446528,4.443484617244075,113.83298503594271
713,3.745,2.335,4.412423650896438,0.4512039,-0.6397818500000001,-9.9689415,121.92103814423524,4.3527626745091474,111.7641689728034
714,3.7000000000000006,1.9933333333333332,4.202124762511949,0.5181612999999999,-0.6087590666666666,-9.894691333333332,118.28943994219271,4.163015165426255,109.5413128160001
715,3.015,2.43,3.8716499114818115,0.4789178,-0.6754863,-9.815670999999998,128.85871388618662,4.6604871236374805,114.12563653476576
716,3.766666666666667,2.2133333333333334,4.368015812563102,0.46752219999999994,-0.6841269333333333,-9.759250666666668,120.41531602293254,4.491754720443765,113.39765335070994
717,3.975,2.9450000000000003,4.945677733104254,0.27684385,-0.68053655,-9.6850735,126.51415864389884,4.580180815140569,112.27672903901187
718,3.686666666666666,2.1500000000000004,4.267039884507196,0.3000219,-0.6163092666666666,-9.764637333333333,120.22726300249873,4.555783596287049,109.00095244282232
719,3.84,2.065,4.3592932799133575,0.3082525,-0.617388,-9.8777575,118.2441418112803,4.51689869238877,112.0413880123916
720,3.6099999999999994,2.203333333333333,4.2285164541713876,0.4758011,-0.7541725666666667,-9.937899666666667,121.3762765263572,4.4978669352328176,111.05835475113345
721,4.085,2.46,4.76744862521931,0.38192139999999997,-0.63910495,-9.7921595,121.02910238489841,4.381121371812365,108.43494882292202
722,3.1966666666666668,2.266666666666667,3.9180509129652354,0.5289606000000001,-0.6629820333333334,-9.880415666666666,125.32542271707428,4.147686818268698,107.70312357857163
723,4.505,1.28,4.682952827012318,0.4633008500000001,-0.6583195,-9.869388,105.83281509201376,4.45311086274692,111.6605576454565
724,3.75,2.27,4.382697723170334,0.4862808333333333,-0.7619625333333332,-10.055277666666667,121.16492805713774,4.621528934840821,108.58906800670974
725,4.859999999999999,2.43,5.432341088582709,0.3297873,-0.7300689,-9.721123,116.5237628497824,4.803035554003042,111.3759923908704
726,4.3933333333333335,1.7966666666666669,4.745846562105703,0.39958473333333333,-0.7707065666666666,-9.867712333333333,112.20945672670955,4.846359268938462,110.19660167379274
727,4.005,2.205,4.5710095061098155,0.31820255,-0.6919461,-9.8117105,118.80799303394438,4.929576757982777,105.90696703322207
728,4.446666666666666,2.3800000000000003,5.042406771837489,0.5178296,-0.8669490666666667,-9.855785333333335,118.12293477800314,5.160291354420213,114.57663950630902
729,4.96,2.9450000000000003,5.766536648695529,0.6045573,-0.9660622000000001,-9.8615245,120.65896139645221,5.490980729901659,114.16408965388973
730,5.43,3.026666666666667,6.214351421461665,0.4443698333333333,-0.8547911,-9.900224333333332,119.08477655981798,5.682050549168695,115.56838530213525
731,5.220000000000001,3.105,6.071468555922627,0.5107956499999999,-0.8832276,-9.924135,120.70024319714881,5.766045538638467,113.94484577315562
732,5.159999999999999,2.953333333333333,5.943414850498132,0.5364214666666667,-0.9142830000000001,-9.863041666666666,119.73972831258324,5.692822589338841,122.58267699808356
733,4.805,4.02,6.261829553676966,0.5013100500000001,-0.8129449000000001,-9.7633145,129.8969240384242,5.542877984968678,122.02987356624547
734,4.5,3.3800000000000003,5.6259127622116925,0.5121318666666667,-0.7938174,-9.767052333333334,126.88591113858823,5.205656621606006,123.31959284513218
735,4.625,3.2800000000000002,5.667948716426762,0.583621,-0.6722218499999999,-9.791405999999998,125.31460457487813,5.644200676146138,119.92649630731354
736,4.776666666666666,3.146666666666667,5.717962990862057,0.47190736666666666,-0.8054547,-9.778376,123.3406188311928,5.222019476849393,119.08411084332104
737,4.325,2.88,5.194637847507469,0.4948644,-0.82546365,-9.870987,123.63149435399777,5.132747368930629,117.92379003217135
738,5.046666666666667,2.34,5.561499364192893,0.5133008333333333,-0.8891016333333331,-9.680909333333334,114.83139509853811,5.552676966876575,116.06476074037964
739,5.17,3.0300000000000002,5.990397698901366,0.3444973,-0.8767735999999999,-9.764691000000001,120.3288076844832,5.523450293279854,115.91935234671293
740,4.426666666666667,1.8466666666666667,4.795702989266245,0.38703856666666664,-0.7240763666666666,-9.774204333333333,112.61087472427599,5.523216061088019,120.66532584658006
741,3.9699999999999998,2.325,4.599768515751897,0.29406709999999997,-0.8030635500000001,-9.788829,120.3287410435756,5.281390459805646,125.16421035979745
742,4.523333333333333,3.5066666666666664,5.721161733070339,0.46711223333333335,-0.6834303666666667,-9.770688,127.76120680816481,4.917016913362527,122.80559619757848
743,3.705,2.6,4.525218092722539,0.47719405000000004,-0.7198886,-9.808435000000001,125.04034309001457,4.807832317492074,118.2598897637545
744,3.986666666666667,2.0933333333333333,4.502052958475048,0.4294597666666667,-0.7037049,-9.805567333333334,117.67563230240856,4.60222479068164,113.82742138057044
745,3.54,2.015,4.072671952695022,0.59855985,-0.66117045,-9.7251715,119.62771461216406,4.791779711596195,119.37549688219008
746,4.03,2.296666666666667,4.637550600681668,0.43976826666666663,-0.6814663,-9.715456666666666,119.65101071083953,4.8802209272100034,120.61881442986598
747,4.59,2.89,5.422390819934974,0.5268465499999999,-0.6906717499999999,-9.902455999999999,122.1623175822923,4.9889987933945665,117.91731021242029
748,4.513333333333333,2.7399999999999998,5.278469521358134,0.6549727,-0.7511932666666666,-9.913129,121.22827221649251,4.949677330675963,130.42388274226522
749,3.9450000000000003,4.7,6.133358822697182,0.5752709500000001,-0.83863025,-9.856804,140.0099375002191,4.568074563141891,120.32404391129643
750,4.603333333333334,3.5733333333333337,5.825109073593799,0.5239404,-0.6970419,-9.933487999999999,127.79658166985152,4.307388744307872,126.81787364726594
751,3.21,1.38,3.4937811881072567,0.6332437,-0.6494396,-9.957849500000002,113.24544396815347,4.633492985164978,126.34061636390375
752,3.356666666666667,2.5999999999999996,4.244935148423829,0.44896753333333334,-0.5718934999999999,-9.843625666666666,127.74786362375283,4.3449689112410335,119.23456253764998
753,3.585,2.22,4.215944864004158,0.5297973,-0.53673835,-10.027470000000001,121.74707586717557,4.415279809287557,121.02087653873836
754,4.073333333333333,1.6066666666666667,4.37824982989816,0.47099073333333336,-0.6175879999999999,-9.999435,111.49818336658123,4.091316718624748,130.07423146549226
755,1.755,4.095000000000001,4.454638424021216,0.4291612,-0.66231745,-9.6384975,156.830271312987,3.8047758575458173,117.39617556142426
756,4.153333333333333,0.9333333333333332,4.25673143580956,0.4950325666666666,-0.6772771333333333,-9.842524,102.64466880996578,4.423736473427914,109.29333077430513
757,3.485,2.46,4.264898511555372,0.45192944999999995,-0.687619,-9.8884945,125.20087085878637,4.038405971831723,106.96028512683189
758,5.216666666666667,1.5166666666666666,5.432083287466244,0.28439993333333335,-0.8169546,-9.949821666666667,106.17209271789358,4.531005459067214,113.87883630870245
759,3.955,0.8500000000000001,4.0451671273022605,0.58875225,-0.7578502,-9.963998499999999,102.11154054357014,4.648141530934202,116.7235680027289
760,4.046666666666667,2.49,4.750294426124111,0.4939744666666667,-0.6183445666666666,-9.889147000000001,121.57841065916642,4.708659696243343,113.28413671805079
761,3.25,1.72,3.6766460563232086,0.35686775,-0.6222186000000001,-9.826165,117.87086693320462,4.090718750447952,108.94740179334917
762,3.4233333333333333,0.6066666666666666,3.47661005727707,0.23964143333333332,-0.5023162999999999,-9.890015666666669,100.03799831454313,3.8107604927335865,109.60664594542561
763,3.59,3.295,4.8714382003636,0.29927709999999996,-0.5260603,-9.6481755,132.54066524969207,3.67065922996237,109.28353352609979
764,3.2466666666666666,0.30666666666666664,3.2611022999279897,0.2742655666666666,-0.6148296666666667,-9.745581333333332,95.39022108612029,4.120634333367022,113.78983696258236
765,4.46,2.495,5.109211795800778,0.11686754999999999,-0.5392456999999999,-9.600135,119.18946526114222,4.215939975331298,106.65604433745979
766,4.57,1.1966666666666665,4.723756234351127,0.3281582966666666,-0.6790824999999999,-10.098109,104.64584658496234,5.104988865568093,113.62562833404453
767,3.755,0.385,3.774657298906099,0.24985480000000002,-0.69856275,-10.095659999999999,95.84583948684536,4.982179766051117,114.10743007773635
768,4.673333333333334,2.6133333333333333,5.35298061643091,0.17390269666666666,-0.7917380666666666,-9.894786,119.1767084533684,5.00330888307921,110.7066609217424
769,4.6,2.015,5.021105143311502,0.4355442,-0.7466522,-9.952204,113.61890275907137,4.69828820658638,117.01915474809879
770,3.52,1.5566666666666666,3.8484492365507283,0.4647459333333333,-0.6302498,-9.781501,113.83522012090066,4.468397569407567,115.56813182237951
771,3.69,2.48,4.444996428093909,0.57403655,-0.6768172,-9.9644115,123.88438991031639,4.609435380232647,120.43578225515367
772,3.4033333333333338,2.263333333333333,4.086481219224737,0.5338065333333333,-0.6395335666666667,-9.789597,123.60792009280922,4.07994241208892,114.27027325930946
773,4.28,3.075,5.268436892444016,0.3760825,-0.6689042000000001,-9.8858775,125.67117852221283,4.102746305555519,108.23892297164585
774,4.2,1.64,4.5083012912046385,0.3248021,-0.6904931666666667,-9.660454,111.2999658316414,3.686964394860013,108.20222158868762
775,3.1950000000000003,1.5350000000000001,3.5442639738563932,0.31401735000000003,-0.6619944500000001,-10.0206525,115.64356501745753,4.028758793224242,108.41318817850187
776,4.166666666666667,2.3533333333333335,4.784299475303694,0.38180400000000003,-0.6574728000000001,-9.923048,119.42826926052157,3.849277182768758,105.41207847159012
777,3.395,1.805,3.8445072310243575,0.42991520000000005,-0.6186923,-9.770649500000001,117.97802589713683,3.774213283713595,107.08259024907494
778,3.8366666666666673,1.1366666666666665,4.0012611112349425,0.1566776533333333,-0.6970343,-9.774985666666666,106.48137752957622,3.308048508081813,101.9705506595245
779,4.245,1.79,4.60632823508359,0.17805153,-0.6388796000000001,-9.9253945,112.83292813078852,3.0851586919141685,112.0232412139478
780,3.8800000000000003,1.07,4.024617909507226,-0.09954755,-0.6440868666666666,-9.750166666666667,105.39667899423871,3.330932914763604,110.2601618170354
781,3.6799999999999997,0.7849999999999999,3.762682207595214,0.23940994999999998,-0.6136903,-9.871779,102.02623267131557,3.0992367585644,110.20031434818827
782,3.44,1.6633333333333333,3.8205958206880406,0.2863859,-0.5243444666666667,-9.831722,115.78433885689849,3.0180854750042867,114.5886682907503
783,2.8,1.175,3.0363671919526722,0.36439055,-0.5812353,-9.731847,112.75159483792925,3.353788546611163,113.82314895365646
784,3.513333333333333,1.4433333333333334,3.7979086963085646,0.3724047,-0.6410440000000001,-9.891419333333333,112.3126446967477,3.46391443112211,111.18653364823405
785,4.19,1.185,4.354057971632886,0.23918945,-0.6333576000000001,-9.9045225,105.76714067576751,3.6348389563828882,110.97780721287364
786,4.386666666666667,1.2733333333333334,4.5673901591886805,0.22928319666666672,-0.6171793333333332,-9.833687333333332,106.15915010607681,3.8100942367240864,114.03179898664403
787,3.625,2.005,4.141893801185337,0.53175275,-0.6703724,-10.009624500000001,118.92463738981111,3.6024906409333477,114.58041439652759
788,3.4766666666666666,2.28,4.156829169560686,0.3570342333333334,-0.5278832333333333,-9.955219,123.23848685566779,3.3396453438783,107.94345296650471
789,3.76,1.45,4.029526128973439,0.4694709,-0.6296504,-9.90021,111.06502728930005,3.4243174654239246,106.34886320515272
790,3.65,1.51,3.9496220838649045,0.2731061666666667,-0.6006010666666667,-9.829444666666667,112.45210345276271,3.1650845735925475,113.98687015587808
791,4.065,1.64,4.3828427393924825,0.32120930000000003,-0.54513375,-9.891240499999999,111.9433677243385,2.904244166603455,136.32418923634893
792,1.736666666666667,1.7633333333333334,2.474753163770896,0.5879599333333334,-0.43518686666666667,-9.801129666666666,135.4368024081145,2.847749760206847,138.62595064428626
793,1.73,3.76,4.138381584388713,0.38804130000000003,-0.34179845,-9.8943265,155.3171801425723,2.7058270002578775,136.96444008629135
794,1.99,2.21,2.973589703626388,0.34246930000000003,-0.3152013666666667,-9.916641666666667,138.00114190589088,2.638500247918391,136.1358468085238
795,1.7149999999999999,1.4449999999999998,2.2424598878861985,0.60063245,-0.37209955,-9.875311499999999,130.11388916425062,2.7582261204862912,130.0915754334269
796,2.3699999999999997,2.8733333333333335,3.7240078417108373,0.5164733666666667,-0.4003909666666667,-9.888347,140.49084572004847,2.787578456145209,119.28172258368784
797,2.07,2.1149999999999998,2.959084050931098,0.44763005,-0.52641025,-9.899969500000001,135.6166079379736,3.00029377373988,127.47381632255848
798,3.4599999999999995,1.39,3.7284515154507343,0.4658614666666667,-0.5366893333333334,-9.613867999999998,111.86679455279108,2.890652463362924,128.48157272029187
799,1.935,2.605,3.244637036825192,0.4372747,-0.4352115,-9.906612500000001,143.4034269949816,2.897990407634025,127.77688980536215
