index,mav_roll,mav_pitch,mav_tilt,mav_acc_x,mav_acc_y,mav_acc_z,mav_dir,sonic_wspd,sonic_wdir
0,2.171723483446362,5.056454332673592,5.501987045814282,0.09061839993333333,-0.03685858696666666,-0.9862963350000002,156.80075318454217,4.89150554408182,162.05236683378152
1,2.062102244605191,5.418119805351716,5.796171507639927,0.09568774313333334,-0.033277285766666664,-0.9829027076666667,159.21211256639063,5.213277622206346,163.92360171363163
2,1.8188128673143875,5.834556991234239,6.110539430944972,0.09831506513333334,-0.036174244700000004,-0.9876473850000002,162.7369908807242,4.998532406911238,165.4224607663825
3,2.42710028547079,5.414266979645264,5.931909969652759,0.09398311103448277,-0.03962283696551724,-0.9841850937931034,155.90527843262177,5.002262690758846,164.91786294740518
4,2.285226687085946,5.380640905749477,5.844501268859366,0.09239072813333334,-0.0403073822,-0.9853583223333331,157.03820160403683,4.598931677886948,161.23642858344206
5,2.3601537936006007,4.756238264039592,5.308420292009148,0.0873517074,-0.03650313176666666,-0.9921496873333333,153.64790336913128,4.657278794399293,164.47922511859466
6,1.0696939751223924,5.996525229595973,6.090843869095068,0.1015016887586207,-0.017314658479310345,-0.9786307186206894,169.92069505045365,4.750385118981671,163.34314700468667
7,0.4780749670850498,5.541824171073995,5.56234281838935,0.09475139629629628,-0.013989980908518518,-0.9876452600000001,175.0846841581091,4.8759679161093334,167.04632929318208
8,1.5641619709472152,5.074341770681723,5.30934522392521,0.09191946241379309,-0.02485998069310344,-0.9870718644827585,162.9063274198409,5.0981805123565405,166.034992640516
9,1.4199882075451553,5.469941899798612,5.650708012483919,0.0983680927,-0.02741608331666667,-0.9859642256666667,165.48686130379662,5.3201761439269175,171.24466320662412
10,1.664499777979461,5.786690798499159,6.020541731176513,0.09895822051724142,-0.03259040006896551,-0.9781550020689654,164.00003324807446,5.508909515031764,161.49005247602778
11,2.2262355435565135,6.205593576971903,6.591367060644366,0.11089113589999999,-0.03411963606666666,-0.9841079626666668,160.32687900275292,5.4150868957380975,162.28787726753006
12,2.1073136660516565,6.712805343122244,7.034357620052088,0.11022443382758622,-0.0348654888275862,-0.9871647727586208,162.63930810701868,5.197686515812855,161.0014816357141
13,2.0668884213881564,6.0531771112662565,6.395081987837825,0.10683075190000002,-0.038245029300000004,-0.9842332289999999,161.204945582425,5.280308249526457,167.16614627554185
14,2.286502282820904,6.137820613812932,6.548352333626413,0.10677006500000001,-0.036893786233333344,-0.9808979906666668,159.6301515131324,5.035083094571642,164.75407919950163
15,2.1704996208746525,5.856292756680336,6.244262535476342,0.10148984053333333,-0.03561508896666666,-0.9830086913333332,159.72011852869596,4.94414248737687,162.68574374380484
16,2.0355244970771897,5.1220480541873625,5.510688873973712,0.0869589535172414,-0.038273244379310345,-0.9868427237931034,158.37107859133855,4.7973038944576,163.12856761567284
17,2.228095640948238,4.385749838877603,4.918283354202776,0.07904871006896552,-0.03561286265517241,-0.9861425913793103,153.10159984909956,4.699302929547603,160.7961574523904
18,1.5740568965896895,4.54884299157777,4.812942920935789,0.08112484970000002,-0.0314642941,-0.9845116600000001,160.94538848739302,4.512381549228384,159.17961977038416
19,1.880417405195653,4.715140622465131,5.075483638892206,0.0820978295862069,-0.03537303351724138,-0.9862532237931034,158.29515310724364,4.349355297826717,157.59720655116953
20,2.3578817724340895,4.96426002466208,5.4945030353158355,0.09078155353333334,-0.02316499328533333,-0.9849696233333334,154.63671077623275,4.292903169077704,154.03025508411022
21,0.043792359809825335,5.829961632268866,5.830125537362038,0.09860620465517242,-0.02462506977586207,-0.9905616927586207,179.57111109990845,4.287021337413752,161.4264427879983
22,2.1776017170927426,5.529371387581491,5.941478390170203,0.09752589403333332,-0.03747877406666667,-0.981529795,158.55558458673764,4.236248267896013,158.85129900558638
23,2.816803720727442,6.278849353205209,6.87942874908068,0.10174112099999999,-0.030761429310344823,-0.9846741910344827,155.90672039175928,4.343963761452642,158.21352944417524
24,1.4770605397379062,5.407150956211505,5.60468627738182,0.095735605,-0.031908157933333334,-0.9844509680000001,164.7614348378217,4.385400106728863,157.8507284239498
25,1.3952013652413529,5.329509148554823,5.508596648108718,0.095978765,-0.02504013726666667,-0.9873517623333333,165.36761684855378,4.437396253848666,164.58729194123276
26,1.3096472635738001,5.688195125935161,5.836531579621042,0.10144490146666668,-0.023750802666666668,-0.9849754156666666,167.07321860803788,4.148689636953837,160.38344552440466
27,1.3264991134565423,6.148641912010604,6.2895657347391145,0.10172441937931034,-0.024647532206896552,-0.9830712962068966,167.8689592412255,3.89130963236137,170.19821877346607
28,1.3538866769415643,5.610035287887806,5.770584317995527,0.09847711776666662,-0.022502696299999996,-0.9873766246666664,166.47143720243326,3.92771312260561,172.50084796368012
29,1.1399465127813946,5.288034854019592,5.409168029854905,0.09455828509999999,-0.0247636776,-0.985644062,167.86684001815692,3.7272562455431117,165.46499472328068
30,1.8276435992960838,5.320931447742992,5.625209663244565,0.09280918949999999,-0.022009667125000004,-0.9839185404166666,161.08802272016968,3.645779880360421,170.99450244811126
31,0.5452810597442463,5.309554836943754,5.337401276684656,0.09140449748275863,-0.010001746462068965,-0.9847246406896553,174.15289291865722,3.664681550246522,172.7407574689146
32,-0.5108325901194082,4.878251880968792,4.9048609044122795,0.0871492344,0.003067646175714286,-0.9895601985714287,185.9638252395139,3.797741743749771,168.66779295055883
33,-0.17735827558588296,4.548789963970603,4.552239007078224,0.0782271516,0.0041489875666666665,-0.9884721813333334,182.2281621229059,3.599636086410778,174.4088939986021
34,1.038029918119798,4.588631131906756,4.704331735072683,0.06942090144827587,-0.009260550003448276,-0.9861961799999999,167.2782518036304,3.4246826427166144,159.87209886739038
35,0.18023951174257322,4.1502296851175045,4.154134793669316,0.0769241868,-0.02098650048,-0.987124929,177.51761246187382,3.403706877262754,173.9854486635755
36,2.7557632492556396,3.6891363170870113,4.60363538014034,0.07382720563333334,-0.027031074733333334,-0.9881505176666666,143.25728716600878,3.8959414310492124,179.94446739852498
37,1.6834284597626483,4.461294068649806,4.767740164072228,0.07426239396666666,-0.028615107266666665,-0.9830584256666666,159.3592933492121,3.9811651435980884,176.80168167840884
38,0.32694116860282374,4.745803451727931,4.757026000195349,0.07690017871428574,-0.019920033017857147,-0.9878716357142857,176.06803272367898,3.3280379851374513,169.16289332744418
39,0.6418422790685372,4.312842766513881,4.360251812869043,0.0778169344827586,-0.007046609589655173,-0.9888734868965515,171.55071571535285,2.8535882095098337,173.25898012167815
40,0.312435306092993,3.9130060681546044,3.925440165931781,0.06855273903333334,0.00234397434,-0.9850283336666666,175.4419085669752,3.0749620523974377,169.56907263103471
41,-0.8012174645908038,3.377186377466073,3.4708203114625285,0.05797071,-0.00030868596166666666,-0.9877339441666667,193.33226768366075,2.645507977816179,180.26556370438016
42,0.039144810433239606,3.0829792102562554,3.0832274726209397,0.05613453827586207,0.0006507523262068964,-0.9877138393103447,179.27325243865877,2.2957465665698935,174.46985269006112
43,0.4497075030956026,3.065094904514436,3.097878411506931,0.05482190988888888,-0.0051880654825,-0.9877825661111113,171.660858976023,2.3949051654532982,165.18818418255742
44,0.5220624199003343,3.3395246449114575,3.380039247679519,0.06271015153333333,-0.01729887526666667,-0.9887887059999998,171.12461981166604,2.4248385194036093,161.23799008257512
45,1.9165161157504973,4.375363061118393,4.775949415533436,0.06888717146666666,-0.03138931143333333,-0.9866901906666666,156.37851862662546,2.2372289426620147,147.566366392407
46,2.2936176987685366,4.48210849793493,5.033809909768629,0.07184996620000002,-0.035116344666666674,-0.986024252,152.93496281099138,2.515938980812072,162.19765568254107
47,1.901218426751921,3.9769017222831238,4.407331587746377,0.07597759032142858,-0.03309062142857143,-0.986964139642857,154.47680748166442,2.329745648782221,169.00372741911258
48,1.8697872520396994,4.274858920709853,4.665193782562624,0.07237381824137931,-0.03125405020689655,-0.9853172348275863,156.40743627801663,2.8082335089229957,164.42814350180717
49,1.4745641659033377,4.177768474659735,4.429924821271083,0.07222727203333333,-0.030243035733333333,-0.9863903566666666,160.5871835232716,3.0068708994163678,154.50117523882287
50,1.7383217089112548,4.082219528192567,4.43634573373792,0.07196420816666668,-0.027139684933333342,-0.9890048326666666,156.96299344872997,3.1359369195271554,155.16483244473508
51,1.5035849766374663,4.391748632999589,4.641529310463235,0.07517378913793105,-0.02839071493103448,-0.9842729082758621,161.13092637202317,2.6725532145516664,157.2612807496584
52,1.6869312599404875,4.235855551686534,4.558840049556389,0.0724165784,-0.029033298733333334,-0.9876065083333335,158.3152770314902,3.045111937328948,148.26244152341982
53,1.9601379091377338,4.516415079118872,4.922619632388908,0.0836323662413793,-0.03407933255172414,-0.9850911706896552,156.57422654065766,3.25029813527491,153.94197788383678
54,1.9003420436334628,5.363584611983062,5.689357075198298,0.08821219426666667,-0.033334425333333334,-0.9852198736666666,160.5366674198105,3.6046970759277963,163.22388925918384
55,2.2566101907238596,5.578360950792064,6.01616975100145,0.10092052006666667,-0.043190135666666664,-0.9830844576666667,158.02794998575274,4.281855876117343,168.33467070470195
56,2.869931700110135,6.444371391543556,7.052067982931046,0.10624228887499998,-0.04908635758333333,-0.9811651675,156.06686861210707,4.251384184274771,164.32688735136435
57,3.025586424335278,5.363212224438382,6.155604081123531,0.08904086805714284,-0.04761076457142857,-0.9858670277142857,150.61997597626313,3.8264589215257425,142.2072018408243
58,2.4742139021027016,4.065720559112055,4.758312552028811,0.07683746309999999,-0.042957079766666656,-0.9886612219999998,148.70412252369908,3.5276884473309895,152.95449233199386
59,2.391009444948791,4.30992934339382,4.927639279695076,0.07671523643333332,-0.04277081043333333,-0.9868471056666668,151.01168149442975,3.743698324483136,145.39968028223652
60,2.324019347197187,4.540290550503693,5.099411042737189,0.0785223594285714,-0.03864805331428572,-0.9855077877142857,152.92959530379258,4.061052144420572,154.55439320287502
61,1.856437647067852,4.555319020072016,4.918335790802198,0.07772927154166666,-0.03719544833333333,-0.9834651045833334,157.86276152413294,4.950138672161186,150.8923760340839
62,2.2116866274042626,4.756588727549084,5.244563873498284,0.08080685603333333,-0.03798585200000001,-0.9871781616666665,155.10232928831184,5.193352746998589,158.72596681550604
63,2.708698367631425,4.2267273170074215,5.018859860630234,0.07383011913793104,-0.04414757903448275,-0.9849815562068966,147.37408749740908,4.759365091742087,166.01906666018948
64,2.1659843721381407,5.391731655832242,5.809337364559121,0.09850819506666668,-0.03972754403333333,-0.9871410463333333,158.16265520462042,5.384506812457646,163.19686252814614
65,1.8378764934547553,6.221140059626336,6.485914597249154,0.10412146186666665,-0.03246023596666667,-0.9830409656666668,163.5974970548353,5.394438831643435,165.34707921543907
66,2.2007488781992746,6.024129288606392,6.41214219138548,0.1029281226,-0.035747150400000004,-0.9827810600000002,159.99068988761314,5.1001208788526275,164.01862018898103
67,2.2974940045232817,5.9294399860026905,6.357505636296364,0.10257758424137933,-0.041012352896551724,-0.984461224137931,158.87869437069406,4.866287292915206,165.8270874369773
68,2.2754485530868735,6.108241571423014,6.516797430545896,0.10492500236666667,-0.039792991066666665,-0.9845436870000001,159.62984146233958,4.703890665316236,160.0782702528233
69,2.418768078713806,5.632933582270985,6.128745078976583,0.09582294549999999,-0.042427778166666666,-0.9840578729999999,156.81611364760136,4.664929235797183,165.6858248037924
70,2.4295812811276765,5.663431905829578,6.161013454779092,0.10370385720689657,-0.03805048493103449,-0.9830483503448275,156.83619735107638,4.635264610110403,164.58636344948147
71,1.8717886842556801,6.38571013934609,6.653297468871666,0.10742678013333332,-0.0334381788,-0.9831241606666665,163.72163184779953,4.559951028989073,163.94997544348024
72,2.646681386746876,5.269258802051498,5.8949341096185055,0.08872238116666666,-0.04190953740000001,-0.9806369353333332,153.37873867780468,4.4439325176802,163.20371307464183
73,2.45704968287484,5.273817290207391,5.816629671445113,0.09706177431034481,-0.04150412382758621,-0.9854689027586205,155.06796194955746,4.3824986450166925,163.85323693973203
74,1.9680781260907403,5.844478231947057,6.165858642421728,0.09915190479310344,-0.03616154320689655,-0.9857114624137933,161.44285353156454,4.187261473745286,166.0694377163028
75,2.367892489514618,5.682578422438453,6.154690395177104,0.09626628409999999,-0.04227513166666667,-0.9865256016666668,157.434049031133,4.387833747502455,168.07411273915721
76,2.627327490088218,4.934803300669361,5.589101338708175,0.08020053563333335,-0.03831395173333333,-0.9837300593333335,152.01100140030897,4.468615754799406,166.6737879184807
77,2.042787078747498,4.454989050404474,4.900152327319159,0.08282333431034482,-0.03606366331034483,-0.9840642810344827,155.40127862992676,4.511191025318573,159.48526501804716
78,1.6492870691880415,5.366507545333964,5.613518641492437,0.09787959789999999,-0.03511387136666667,-0.9862616709999998,162.95890654314772,4.041469724332865,152.79112776149978
79,2.8884761364602713,5.796677502729685,6.474277875894223,0.09517475293103449,-0.03612512496551724,-0.9861465103448278,153.5717774465654,3.383781848168421,163.49225773788584
80,-0.02141922425784896,5.906021621573183,5.90606032407298,0.10177367866666667,-0.012652226866666668,-0.9825102593333334,180.20705582840918,3.8861401619305616,168.24021697342653
81,0.7952315201874527,6.570029734843502,6.617772258176479,0.11440126403333334,-0.01296067881,-0.9842827306666666,173.12808233146495,3.541760198501219,163.63680548773112
82,1.404839615738426,6.943246190786912,7.08325993991838,0.1210825816551724,-0.02616691913793104,-0.9729068172413793,168.61401795828013,3.5001910531604166,148.7449115065697
83,1.8930333103367591,7.4991712040934635,7.73308836292504,0.1267334625333333,-0.028096113733333337,-0.988368482,165.90550018717425,3.3685184632764233,154.39983914704214
84,1.6571510610901847,7.367938866850473,7.550994496360645,0.12505876586206893,-0.030554375379310342,-0.9804331427586206,167.3886196583204,2.9744869916873373,174.84625097793878
85,1.826532260076874,7.0097402567938625,7.242652517660975,0.11954139768965519,-0.031085171310344828,-0.9735821303448275,165.46029156187114,3.9679559585021074,180.32244037682764
86,1.9851454678854226,6.374923454123788,6.675640423104601,0.10909154443333333,-0.03405396696666666,-0.9873849206666667,162.76416553765807,3.9109759987812946,165.7767161308924
87,1.8586174160163873,6.078929036488194,6.355695431313627,0.1102659789,-0.03397059203333334,-0.9839080736666665,163.05369070538566,4.225533690570509,174.28452283229265
88,1.8754350133105537,6.226201929080757,6.5014606313275465,0.10789131296551722,-0.033686859310344826,-0.9945973158620689,163.29354677310744,4.439357199187407,165.75030162132555
89,1.98252820794401,6.39140939727975,6.690606431108835,0.11120963383333332,-0.03226560333333333,-0.986524689,162.82769817198582,4.994850750683577,164.41178749940113
90,1.8994655660531508,6.496552106444535,6.7673984982199995,0.11457200278571429,-0.03599944153571428,-0.9828753425,163.7626867047893,5.013045602642975,164.6472035260929
91,1.92713154018784,6.634792316124035,6.9077991312300915,0.11071604956666667,-0.0342109304,-0.9812098413333334,163.86653047717232,5.051578980269483,167.31247862613003
92,1.926799765849738,6.5372521481350505,6.8141101925920715,0.1152156215862069,-0.03394626593103448,-0.9825918531034482,163.63923172721238,5.034661297334437,167.28302113692817
93,2.0077795104244784,6.912477641206461,7.196801144650958,0.11764672779999999,-0.03314163826666667,-0.9754051206666667,163.87197847406733,4.916077554020253,167.79650723798224
94,1.9238006063575577,6.295186580661676,6.58144947049135,0.10542810739999998,-0.03467629237142857,-0.9795898060000001,163.06543051734414,4.899713557737855,168.7814482770678
95,1.793994979218677,5.456973300715655,5.74345171213471,0.09711351634782611,-0.031879776608695655,-0.9872273495652174,161.8474802739983,4.907596748930702,166.63415606263644
96,1.7120017102830953,5.775652751526195,6.023220039680963,0.1012309910689655,-0.025679993137931033,-0.9829924437931032,163.53757604882136,5.0457088417349185,168.92605872514807
97,1.0720880118469334,5.700665443699328,5.800272746933331,0.09619635927586206,-0.026841257758620687,-0.985458878275862,169.3823062561019,4.84442941005026,163.83190305821577
98,1.9002852775013637,5.058801957505742,5.40307063431632,0.08970601233333332,-0.029864929999999998,-0.9857908076666667,159.45399149689646,5.063174329743281,163.72563828184238
99,1.7449570973303732,4.734259644585072,5.044913922580517,0.08074220989999999,-0.029791636199999992,-0.9849638273333333,159.80368651637792,4.812255813027516,161.7046035205628
100,2.0634672584194274,4.774512708560445,5.200385334802342,0.082065719,-0.037804913291666666,-0.98506135,156.6661046474742,4.718770238704911,165.95213525957672
101,2.529205236278511,4.997975217802992,5.600035702743388,0.09516626531034483,-0.03984105848275861,-0.9807451234482759,153.2021207129104,4.491298681063059,168.7368154784504
102,1.902410560064444,5.957924907725379,6.253237572434504,0.09812284711111113,-0.03157928308333334,-0.9903465286111113,162.34514080513583,4.609144429129308,162.44918654102804
103,1.1677821283235963,5.52503521117005,5.646724669505423,0.0946226860689655,-0.022852238655172413,-0.9785677282758622,168.09986163344212,4.659547899573273,164.98731615269216
104,1.7247108822628512,5.995014754301752,6.2373043477719605,0.11093590816666668,-0.033374292466666663,-0.9799997963333335,164.00098349905355,4.338425477551385,165.91927224014762
105,2.497156363883485,6.969230504755702,7.401025332260292,0.11420239843333332,-0.037934405366666674,-0.9914059746666666,160.3651906446105,4.641578321189952,164.3518641819708
106,1.5642764292759306,7.127770785204041,7.296536184350204,0.12177639435714285,-0.03175979196428571,-0.9871587939285714,167.6809719618218,4.654011728415127,166.8951881915248
107,2.449723700806179,6.614933028755746,7.052077327391905,0.11353652568965518,-0.039566352137931034,-0.9769236489655172,159.75046316312728,4.433013810568976,165.9894381885845
108,1.8376512111637844,6.931339963723126,7.169654429238138,0.12880247770833333,-0.036718203708333334,-0.9831858704166666,165.21571638049647,5.0963670408790795,167.2724045193019
109,2.388931845572284,8.151018189581446,8.491615632121889,0.13701883411764706,-0.04118476155882353,-0.9751611694117647,163.76059526122668,5.251959016464201,161.013100259794
110,2.7626317452616296,7.809188512572063,8.280593802161178,0.12950280666666666,-0.049433116166666666,-0.9838086276666665,160.61577198618787,5.0482290644793615,158.35575405479753
111,2.7410243727709007,6.184827419890184,6.762846717836474,0.1108652611,-0.04367743286666667,-0.9763246953333333,156.16417513906015,5.289687034072726,165.18025548687527
112,2.062495162128658,6.440052649224477,6.760934368571724,0.10964795737037036,-0.03624407925925926,-0.9713138877777777,162.30479043470075,5.377881579691162,163.8292113742653
113,1.7476051619160387,6.5524519318642795,6.780517906745945,0.11275608933333334,-0.03645526926666666,-0.988334128,165.12411793164418,4.524799492461742,149.65370869064856
114,2.2547258347735086,6.134158555471572,6.533930613247711,0.11120628776666668,-0.038285904733333334,-0.9869784526666668,159.87956167506638,3.85243260832417,152.61223854360478
115,2.362776914300036,6.472371280782944,6.888434872578089,0.11008742272413793,-0.04256312368965517,-0.9790238713793104,160.01327372236958,4.263967368368093,160.31508984123334
116,2.632538157154164,6.166689568834361,6.703098752429771,0.10733844963333333,-0.045275355700000006,-0.9859201443333334,156.94800005539477,4.822875595733553,162.77432997254775
117,2.7933019189493966,6.725492237770728,7.280034821447827,0.10687506371428572,-0.04584490678571428,-0.9839511114285714,157.52272181212268,5.047715541172992,160.66093934652204
118,2.3546591564272124,5.768926849333443,6.2294611191895966,0.1088716047,-0.04263934276666667,-0.9786982510000001,157.85311849966672,5.3759419972361995,160.94050918341824
119,1.7745068949130252,6.380066128480197,6.621260610380915,0.11941792008333334,-0.040030792125,-0.98021329875,164.5134869630123,5.0519719958984375,162.46097367177788
120,2.633197271362444,7.294021008615323,7.752352381071853,0.11581074972222222,-0.04144123255555556,-0.9792105497222222,160.2362155158619,4.956544429998051,160.74566354282518
121,2.17712584520285,5.756087687041969,6.152760681441813,0.09891211555172413,-0.033857709241379305,-0.988989992413793,159.33661700762997,4.953095649222755,158.88386116422308
122,1.894090827613095,5.314998146285747,5.64149697213792,0.09994592806896553,-0.03946761251724138,-0.9883361506896551,160.43102888424258,5.073969268446759,167.1677862634293
123,2.524353018484774,6.097050939667549,6.597144368120831,0.10961970450000003,-0.039008444399999995,-0.9789622550000001,157.57251158312178,4.978502561339298,165.89859298756426
124,2.220850874359739,6.409889788900449,6.7822024355375525,0.10615016699999999,-0.0330282515862069,-0.9844625051724138,160.95538794463616,5.05519319704651,163.62484606057362
125,1.8682909880958618,6.506672751468746,6.7684771093120375,0.11405563379999999,-0.036845505400000006,-0.9804703773333333,164.03943974809778,5.045211968213229,162.82174319765545
126,2.137891408141863,6.324757527601466,6.674919905240234,0.10680243333333334,-0.037707384866666666,-0.9840094806666665,161.38638542357305,5.059951489214836,163.39908876897792
127,2.146464638285075,6.238735589548004,6.59627982982473,0.10957797089285713,-0.03885001232142856,-0.9793777839285713,161.07551498799685,4.967555745155112,164.25223493975628
128,2.3216702471542416,6.343645070791936,6.753513180416666,0.10997553056666667,-0.039385884966666666,-0.9891309753333332,159.96376637713792,5.118039401872603,168.94862449637614
129,2.3909816336809175,6.648218328689387,7.063279524564602,0.11262758383333331,-0.039556638,-0.973858564,160.29070143413782,5.064057399303861,168.63397659790553
130,2.3685376344904348,6.537381462070667,6.951471674165175,0.11249146016666667,-0.040953494599999994,-0.9853712913333332,160.15351966132388,4.968557910793821,167.641976784047
131,2.36987726274907,6.646620036737506,7.054690443172055,0.11398012382758621,-0.040385742068965516,-0.9859430510344829,160.44722794959767,4.721265457742999,166.77764637406347
132,2.256472319586072,6.316541860928892,6.7059467474428205,0.11058562875862067,-0.03677927410344828,-0.9918681244827586,160.40590479476373,4.76286948441741,165.63913002872172
133,1.9326966459282446,6.023821881246283,6.325185565764431,0.10375488463333332,-0.033591369066666675,-0.979870688,162.2667349312695,4.95001033464997,167.60665537092913
134,2.036367663361011,6.002235551598986,6.337068957250989,0.10422172546666668,-0.03359901066666667,-0.9833788986666667,161.31607723237474,5.218547269730211,164.50237989860108
135,1.8469463139334414,5.986649294140866,6.264084658925579,0.10803719559999998,-0.0318877726,-0.9826227790000001,162.90765977613273,5.096212461986956,167.2131433195558
136,1.629156983537135,6.506647531771803,6.7066529992806,0.10784688451724139,-0.034277444275862066,-0.9832073082758622,165.9975510665315,5.143128210965454,165.802094756945
137,2.300319519474548,5.954435747478245,6.381826491058142,0.10611377165384615,-0.0356546698076923,-0.9810553411538462,158.93653449772017,5.1237033054716115,167.7398233784409
138,1.9744845515739653,5.926974950145051,6.2460951095059265,0.09851113206666666,-0.03690852703333334,-0.9917276879999999,161.62982744231198,4.789436739468687,170.75908504380627
139,2.1191191719890266,5.097100161530754,5.518989243851996,0.0897116192413793,-0.032029080413793105,-0.9799036210344829,157.46928321355412,4.804896558140772,167.36579973916577
140,1.225899656341318,5.583151663061177,5.715737278836502,0.10331171059999998,-0.0232920011,-0.9829223416666667,167.65220508853534,4.642602156213293,167.0053832080835
141,1.0874806487873279,6.3667556038934885,6.4585849359569405,0.1068159724827586,-0.02174058265517241,-0.9838868727586207,170.34511020021543,4.709854450147983,168.8762936725188
142,1.208385451177224,6.236088337501595,6.351631483137678,0.107915589,-0.019905267166666667,-0.9838881744444444,169.07424627167134,4.471006437671511,177.31934603568578
143,1.0878087555968408,6.308199460995143,6.4009314172088345,0.10849986416666671,-0.019059732856666664,-0.985824209,170.25358985287326,4.686244644269502,170.54350309912004
144,1.3057009366817807,5.970936154837637,6.111526576991547,0.10495113720689654,-0.023740308827586206,-0.9901901627586207,167.70621628396384,4.556845779419977,170.51326111124936
145,1.3180537611063803,6.123814055350534,6.263524871355441,0.10609419013333331,-0.01893154123333334,-0.9757478116666667,167.89614739310596,4.246888918737255,170.07575043311118
146,0.9888867456110565,6.444714602596243,6.519824813184959,0.11352056299999998,-0.0181633867,-0.986787022,171.31189623926687,4.02056736227777,165.54210545501826
147,1.3525678411901068,6.54918320796749,6.6867978616664585,0.11298995816666668,-0.02678908833333333,-0.9843207160000002,168.37844400381866,3.9764120769500035,167.71465731066482
148,2.068923138181242,6.451294416667272,6.773591120633836,0.10777904803448277,-0.030214122,-0.9801619693103448,162.28228735282303,3.9617116564863815,175.23401903766637
149,1.8196456856881387,5.806244078519424,6.083768389237417,0.10125606195833335,-0.03139416375,-0.980692625,162.6498305674405,4.175364666872181,166.7718774452227
150,1.5091490486676216,5.633939569367908,5.831934533847374,0.09594714327777777,-0.02877468838888889,-0.9806555641666667,165.04725972425462,4.950984954680401,166.80869197678217
151,1.5500981555590936,5.055184594220042,5.286913767309437,0.09097363923333332,-0.029431615000000005,-0.985738111,162.99040098837034,4.695350969206611,164.85126767487841
152,2.0469303424868954,5.306851625239022,5.686880389069607,0.09154754382758622,-0.03210389824137931,-0.9831675917241381,158.95453646928465,4.646479958488346,152.99546619841732
153,1.6050602334687014,5.077208840536378,5.324238995007603,0.08467698986666665,-0.026487437699999998,-0.9856323306666668,162.4955051514505,4.242186279066025,154.8836376133689
154,1.278182751548194,4.753935980835407,4.922388395756792,0.08321729699999998,-0.02167422415,-0.9865290263333334,164.98148628018137,3.9000784681861926,161.52859059968907
155,0.7798313456114813,4.519880243108022,4.586522898249241,0.0831209507142857,-0.010311720519348571,-0.9877391885714287,170.23025631955446,3.922486889751814,157.75162963605595
156,-0.8781125931093042,5.049033037741503,5.124628701093609,0.08559207958333333,0.0129197515825,-0.9860657420833334,189.8417301936598,3.796315698700645,153.3510604794784
157,-1.6972608159044442,5.3354780314423005,5.598186135939957,0.08696440303448276,0.016501823643793104,-0.9880010303448276,197.60325704489583,4.070064322862377,155.84102619341203
158,-0.4881967044178892,5.004081072504693,5.027778544464515,0.09155141293103448,0.011655886786206897,-0.9845548910344829,185.558173551608,3.707101033035823,158.61636483523827
159,-0.789371135971478,5.317285687350686,5.375392447281909,0.08128466263333332,0.018108716575,-0.9878206843333334,188.42072086266387,3.1590294656175932,137.85973701741398
160,-1.0100580547800089,4.691173718787962,4.798442175008177,0.07869728482758621,0.005347077934482759,-0.9882394720689656,192.1257321242693,2.573362259906077,137.46335657565123
161,0.3104947946249677,4.52845842442569,4.539068394621147,0.09214505775862068,-0.0034157736103448276,-0.9865580468965518,176.08574772354484,2.838606488695244,171.5376276517292
162,0.14901462293709408,5.38022265790482,5.382279805188255,0.0994810163,-0.006343157086999999,-0.9843958486666666,178.41815923626828,3.206282197676278,171.22483424206138
163,1.54468962120152,6.8116119796962815,6.983757681857738,0.10481709476666667,-0.01222732501,-0.9773965160000001,167.2782691173199,3.2848426110347524,190.2495389417386
164,1.0049316439750902,6.115250014471832,6.196961563799062,0.10795914155172413,-0.015455828068965519,-0.9804262886206897,170.70178017333944,3.633849051032838,190.86503833362303
165,0.29870573258907884,6.10059588864026,6.107876707406752,0.10734378182758621,-0.00795967878965517,-0.9888214396551726,177.20740332878788,2.922181992747487,192.56695685018985
166,0.05000520355418667,6.035829493333294,6.036035862733724,0.10058909656666667,-0.0048032692863333335,-0.9779163289999999,179.5270879249907,3.439672261879588,174.28940686250036
167,0.5677737349069522,5.434003904060529,5.4634968937278945,0.09626320199999999,-0.013168054736666664,-0.993531171,174.05264857418928,4.035440339858944,178.30974757915592
168,1.1862906691046509,4.925341901719404,5.065847423119989,0.08760871756666667,-0.01577161395,-0.9856078983333334,166.4882728110797,3.864891328306602,170.6741441929576
169,0.8057294059626281,5.181989352187692,5.244086422187467,0.09038564565517242,-0.01235637602758621,-0.9851645696551725,171.18520832597318,3.591434346874527,173.66741472991836
170,0.1771426494800075,5.643881558908954,5.646651840746715,0.09662539493333333,-0.005255367016666667,-0.9844696923333334,178.20807522489497,4.147061087766573,179.84306148489415
171,-0.187518733802702,5.991371324754861,5.994294401035043,0.10271462116666669,0.001515166957333333,-0.9844772,181.786137460813,4.055189085253761,180.3928446528187
172,-0.0891904361729006,6.428793475659502,6.429409543282213,0.11223480671428572,0.0018991714742857145,-0.984617047857143,180.79150972844977,3.829410432014766,179.42581991470902
173,-0.027668925426010352,6.6936728510208985,6.693729776425572,0.1167571673,0.0015255920356666665,-0.9943034850000002,180.2357577030443,3.5027854811845156,175.18733369630303
174,-0.1522186278174537,6.515537484462817,6.517307669421015,0.1061039258,-0.0006041993963333335,-0.9771595386666668,181.3325550870595,3.6494601023710453,179.2407576751919
175,-0.14178512230711718,5.9421273546733016,5.9438126143315415,0.11101624846666666,0.0010757453504,-0.976326559,181.3619759776485,3.700347470293833,182.149665020118
176,0.1332747391582324,7.087640269585186,7.088886799325501,0.1198387005172414,0.0005205836341379311,-0.9812322013793101,178.92824443623513,3.7585385834243414,182.16683227866784
177,-0.3507596474198317,6.995862821066844,7.004606835324743,0.11906339641379313,0.001287129298275862,-0.9818125099999999,182.85608212394465,4.096151401725745,181.26074110537922
178,-0.18001847990017544,6.934653461815432,6.936978224946756,0.1220867064137931,0.005552434998620691,-0.9852519168965517,181.4797620728737,4.484931975887511,179.9075236088721
179,-0.3923659203336634,7.279608324904655,7.290117907094152,0.12953145500000002,0.004256715856666667,-0.9767415876666666,183.0686788522692,4.1331324607321385,188.09103325056503
180,-0.20910141486365233,8.179571080756599,8.182225187968676,0.1357735782758621,0.0022342966822413795,-0.980586838275862,181.45443128035922,3.929962479873834,181.99324814786831
181,0.2703558283009349,7.996302039852778,8.000841419308108,0.13717738266666668,-0.0054976082,-0.9800233750000001,178.07612611970455,3.9997691671173436,181.91516176861242
182,0.9576408716728696,7.614336583821367,7.673968485210233,0.13113227600000002,-0.014411559695172414,-0.9759814486206897,172.87281187124339,3.8354563310403487,179.9157209048448
183,0.8434951659081432,7.489009684396664,7.536092732456342,0.13147665886666665,-0.013599853020000004,-0.9802366389999999,173.60967380165,3.986983215928718,182.6542811372281
184,0.6633702821864362,7.647697204812162,7.676243621017881,0.13135384933333336,-0.015365552200000004,-0.9855950743333335,175.07161666804961,3.8490413371002226,176.43429251794186
185,1.0445868955760607,7.064321639752062,7.140746954091893,0.12200255534482761,-0.02077509455172414,-0.9837718755172413,171.6298852719048,4.037503728214828,187.70282827781148
186,1.3230379211392518,6.780074583656632,6.907362905191207,0.11828279709999999,-0.020975625066666666,-0.9859687076666667,169.0066959123854,3.8154316202901746,167.33144309920817
187,1.5810552683531154,6.737484796882894,6.919675140889686,0.1163172602413793,-0.029531875413793103,-0.9800010003448276,166.84919673426023,4.513907067854997,162.68660141970457
188,2.073813738807549,6.36214010911255,6.690279388034891,0.1114812627586207,-0.03179657210344827,-0.9805721348275862,162.00813705167116,3.351188984818547,149.0136594014914
189,1.7219236987299646,6.2485608718532974,6.48056858556692,0.10745361351724138,-0.03120951737931034,-0.985013315862069,164.64716089731903,3.9160378948974994,169.0856332468016
190,1.4533354762877868,6.0755811891578935,6.246354766835419,0.10551868206666667,-0.0266112414,-0.9864720456666666,166.59297548596058,4.006858818073043,156.5401219854446
191,1.4147397086546036,5.742865417034087,5.9139905535648225,0.09840181580000001,-0.027163424566666667,-0.9861556979999999,166.20280003286788,3.465354850457105,152.29951770513262
192,1.57776718184714,5.363668855876911,5.5902608556956155,0.0964702179,-0.026791881699999995,-0.9846832176666669,163.64975849600341,3.503506025102855,157.4313574675263
193,1.4172784306311867,5.610717976206774,5.786398647964532,0.097581974,-0.027959460034482755,-0.9830524700000001,165.8642863266847,3.716317387191086,162.42223096365638
194,1.5977344237674773,5.381599647680549,5.613097029826684,0.09249002216666666,-0.024565884866666665,-0.9853834413333333,163.50642345449592,3.658185756537295,168.42697040852218
195,1.1288784199659008,5.247156201721383,5.366884565085692,0.09227884446666665,-0.02025333898333333,-0.9841086736666665,167.88983656383576,3.529638976670862,165.62905535107078
196,1.0039921115356674,5.184335428627725,5.2803959608184545,0.09016102410344827,-0.02272707703448276,-0.9857802372413794,169.06795429480388,3.3154872237576387,163.55765899941701
197,1.5219914044845217,5.279130322017084,5.49355218607332,0.0909948171,-0.02212033838333333,-0.9836736073333335,163.957158429057,3.835927635131929,153.88058845802797
198,1.3403129991175369,4.835159681130163,5.017065018662684,0.08160658266666666,-0.0267925709,-0.9862782590000001,164.53890183593415,3.8659697400197084,150.03206872686306
199,1.7337753360257437,4.3573289610795465,4.688975892101729,0.07592242000000002,-0.02630495451724138,-0.9870570120689655,158.33442460985452,3.9410658342563796,146.33031662696447
200,1.8060838139321835,4.040521068685985,4.425193753218066,0.06827383846666667,-0.033092429033333336,-0.9881644476666666,155.9440427268244,4.046259353036073,137.8031310706365
201,1.5676249280707788,3.6619412111254497,3.9829529444743716,0.07004328156666667,-0.026585670566666664,-0.9854742766666668,156.84799141524383,3.426051627551788,147.27284079658
202,1.681010047041574,4.066831493804035,4.400018836501918,0.07036947086206898,-0.030202103,-0.9838072517241381,157.57061280700398,3.302297070487887,146.22764578127314
203,1.3625255383157235,4.410512820415106,4.615780614167159,0.06977900242307691,-0.02759633046153846,-0.9890396984615385,162.8615725875775,3.1745490947721193,162.17227008881545
204,1.983073785178185,3.8975535828174888,4.372349175195312,0.06976640558620689,-0.03095902,-0.9836184434482758,153.0595247813007,3.54301525478716,149.31136171059276
205,1.7450868350287712,3.4738088147804183,3.8870223993301436,0.0687438427826087,-0.02990168156521739,-0.9921098660869565,153.34815531682915,3.6817105492523954,152.2461019912629
206,2.0517399987146443,4.146439155134356,4.625499160801922,0.06712390019444445,-0.03830348380555556,-0.9846217422222221,153.7029435308622,3.663757341316692,157.85166039338796
207,2.886240551342924,3.7162601689108326,4.704177620374512,0.064429358,-0.03915156886666667,-0.9849746456666666,142.18069998805106,3.723763238805422,158.78324731396404
208,1.7177253399117618,4.875077318699843,5.168155855716392,0.0918107238275862,-0.03923802103448276,-0.9856411155172412,160.62817429516383,4.0346295401727525,155.18104043770435
209,2.222755155344567,5.540791463134701,5.968718284529077,0.09127251476666666,-0.03159913713333333,-0.9834735796666666,158.1930856005696,4.600580568317935,157.6263865036844
210,1.1980292859946204,5.7750959064335365,5.897638756060813,0.10072727379310345,-0.02624419765517242,-0.9884464924137932,168.31732871336266,4.723100019710941,161.03215544977115
211,1.4132160317240907,4.004072471078392,4.245765353216014,0.07294052916666667,-0.027479256166666667,-0.9859835120000001,160.5854331083502,4.618420322107769,162.18155005959278
212,2.05636034885464,5.237765539239706,5.625923810992712,0.0871028423,-0.0276723702,-0.98819038,158.6108875035109,4.150786655102312,163.91760802984643
213,1.2810349286654217,5.205088873581338,5.359989133647757,0.09082433946666667,-0.030811046733333337,-0.9842361823333332,166.20800084061594,3.830110401808712,164.4365164200663
214,1.9471597013472326,5.040880212643016,5.402972878657588,0.08784464499999999,-0.035229269,-0.9823341413793105,158.92209118751572,3.8161653166887968,164.31409407993362
215,2.244969837642659,4.322547157703199,4.869777943568173,0.07551174163333334,-0.033872376200000005,-0.9865791286666667,152.58682872875818,3.719685294452409,161.637669363179
216,1.8091732252131973,4.032373836677169,4.41902029562243,0.071173924,-0.03607595539999999,-0.9890593196666669,155.8642800084877,3.7068195903279846,163.27580499521508
217,2.8199938793261823,3.8384321616021864,4.7617249453239765,0.07247691240000001,-0.04249173223333333,-0.9836833079999999,143.7151183808232,3.5622631339125235,165.89125576013745
218,2.1182840887459897,4.4126973416082675,4.893888967232833,0.07682008389285715,-0.0398545354642857,-0.9843269889285715,154.39104910952335,3.2518525843780544,160.16377046847253
219,1.525939161659829,4.654846701201432,4.898057033773877,0.07516314033333334,-0.0289626032,-0.9867530783333334,161.88329682046628,3.1982219697543854,161.07486270854864
220,1.9126684675287382,4.165246276595847,4.582698974056878,0.07214478253333333,-0.030643006833333337,-0.9857851093333335,155.36579370511896,3.282901333742765,159.87435248479701
221,1.922934296984662,4.255269195923451,4.668853250699026,0.07385813755172413,-0.02701549775862069,-0.9869489765517243,155.71352627485288,3.4544023502150325,158.0018621329695
222,1.0311885789371829,4.295939131429868,4.417742578463287,0.0776313865,-0.0260146438,-0.9855467206666666,166.52518675443446,3.1453397011655886,164.98663420621034
223,1.9007151694858597,4.634956475753719,5.0087578377496325,0.08111939200000001,-0.028991025999999996,-0.9865383633333332,157.73885552905446,3.268522903492859,164.94267951983488
224,1.5857863191424477,4.839847211487557,5.0924311442307255,0.08052233296666665,-0.0255467313,-0.986601557,161.8945351245166,3.319976838024326,164.92488383666054
225,1.142109618239273,4.143981540019817,4.298223125536956,0.07241740555172413,-0.020502998068965522,-0.9860079796551726,164.61509122419042,2.9456219885275186,162.28396473792424
226,1.2544894113897727,3.869538533434741,4.0675150465689445,0.07035000256666665,-0.02191251663333333,-0.9878582753333334,162.06039010840516,3.1718497633164002,163.73979529168807
227,1.0266280658531222,4.0281801181838475,4.156737077279306,0.07342211273333334,-0.01688759267,-0.9865227206666667,165.72303469734044,2.9995894594125376,163.66768548376012
228,0.8254202880139864,4.0994488192589555,4.181582983611109,0.06667139103333333,-0.013281850536666666,-0.985764483,168.6339234915383,3.073184278123067,165.10511947513018
229,0.34304423381309246,3.1533965346599984,3.171982062765071,0.055445206241379316,-0.013398226203448273,-0.9904803224137931,173.79760448348864,3.0296164324267987,165.09317961760098
230,1.4101872960190922,2.8904153960645966,3.215811257885559,0.05360003166666667,-0.020281783799999998,-0.9871696316666667,154.00759702708226,2.8950324453224465,156.11680018085738
231,1.4253475431462312,2.6819526890200915,3.0369395384963687,0.042833503200000005,-0.02239547653333334,-0.9881536356666666,152.0236429819553,2.300133258036292,162.32280051414176
232,0.921832404351109,1.9127788219538642,2.1232480024912355,0.035990104275862064,-0.018590590000000004,-0.9896424820689655,154.2754127833869,2.1444641838464578,149.3150747305923
233,0.8317860739043182,1.9480791875983234,2.118162874653499,0.035578088066666666,-0.01475068876666667,-0.9879646416666665,156.8851270218584,2.3504251427699816,143.21225717738403
234,1.1204742234003566,1.9061435105116133,2.2109686437089255,0.030461480466666666,-0.013789417183333335,-0.9886170513333333,149.55807102503587,2.544926203964086,151.18451680053772
235,0.31797720633409476,1.855650092529917,1.8826872854546923,0.03572091590243902,-0.009549358712195123,-0.9875442687804878,170.2796852081704,2.601785991113869,150.34201820090425
236,0.8434280012635574,2.4013665964786965,2.5450964105605123,0.04350258161111111,-0.0039274933011111115,-0.9874734316666667,160.65647733072439,2.7367213517945856,150.3024412440321
237,0.5679226475704446,3.6000646440908612,3.6445269933062376,0.06134009439285715,-0.01868072593214285,-0.9874469585714286,171.04659220720185,2.5803586908958303,151.25420954463047
238,2.3472637767435915,4.2718049557752655,4.87316642073236,0.07070856113793102,-0.03253717058620689,-0.986119097586207,151.2434844074235,3.291655238472877,148.76614316249035
239,1.5478335781673034,4.015830541735552,4.303342784267188,0.06801860956666667,-0.029190553499999994,-0.9902435053333334,158.94852054494422,3.1860152980086607,153.05766988514884
240,2.670051660381648,3.854179817795406,4.6875494621300575,0.07198954435714286,-0.04244420292857143,-0.9836268210714285,145.3080988917029,3.186314782654871,156.97859313552604
241,2.6745421894851584,5.270966468258696,5.908982103117659,0.09068251277777777,-0.041118721305555564,-0.9848187541666668,153.14481837791052,3.171435994959205,163.0474093658375
242,1.7779354765118474,5.579146134654111,5.854735551112022,0.09331868560869566,-0.04113572865217391,-0.9843356304347826,162.3713381805287,2.870093023961237,169.4720610533901
243,2.6037171051553587,5.43997728917576,6.029287642925551,0.09448729210714284,-0.03962251289285714,-0.9844900207142856,154.47477175779775,3.830352979779767,177.78263400673796
244,2.3652459300790722,5.3354123784642296,5.834794933766768,0.09090085426666669,-0.04122837373333334,-0.9841580363333333,156.14115451538134,3.491562651276427,156.43810152171199
245,2.390457713684934,4.94458448329865,5.490811347677304,0.08802328010000003,-0.0406914645,-0.9855110096666667,154.24134755931289,3.4038890825749797,157.7169670299289
246,2.475694121875676,5.014594916455964,5.591025323264441,0.09062683589655175,-0.040906357068965525,-0.9842736075862071,153.76854020959183,3.4839782854404766,152.37155893554902
247,2.207690863074312,5.446972069658661,5.876113527071834,0.09182884449999999,-0.03732748493333334,-0.984889962,157.9872845296057,3.626919008774612,154.25281027717193
248,2.105057511353465,5.12452776959155,5.5389736103896094,0.08949266383333335,-0.03579135713333333,-0.9844058853333334,157.71278275942993,3.7580347286856,156.61404147892839
249,2.203387470787759,5.12799785547369,5.580170874388595,0.09082176725000002,-0.03927220675,-0.9854644389285715,156.79318260946826,3.8644994373628054,155.67863530326656
250,2.4138638670510657,5.117113197372089,5.656508120012591,0.0874759858275862,-0.03763372727586207,-0.9865553813793104,154.7914095878125,3.879106279443459,156.95765938927045
251,2.096980498909451,4.758604004011143,5.199184842018357,0.0839298499,-0.03714005543333333,-0.9858306153333333,156.25751050096804,3.692507109158304,157.66605083157415
252,2.005313613040245,4.795458578304808,5.196952055296703,0.08392115069999997,-0.035507428,-0.9839456230000002,157.3461559731571,3.4294252606353806,156.85831131131673
253,2.149802455436407,4.827847494945585,5.283826059948228,0.08382625415384616,-0.03411311046153846,-0.9867945650000001,156.0374200943915,3.4775950983655015,157.2841977906316
254,1.9939199991492276,4.725044821742061,5.127645453075043,0.08069200731034482,-0.03422390786206896,-0.9835516506896552,157.15904632739867,3.5480757526506235,160.0713465127097
255,1.8561028971094933,4.593043790835111,4.953159178668631,0.08080823809999998,-0.030752380600000004,-0.9872876983333332,158.0314998845824,3.365846709103485,157.7267461829912
256,1.532992756753307,4.673601925962115,4.9180694423836036,0.0809198332,-0.0307059542,-0.9850522520000001,161.87355642002908,3.1759662808814038,159.00655865422897
257,1.743158923452959,4.811906363113562,5.117215851659678,0.08193011510344829,-0.028621624793103446,-0.9865480720689653,160.12411532668946,3.150778027064494,161.07873863166688
258,1.6807340322066564,4.375586957684659,4.686697557372761,0.0745629858275862,-0.027319643793103445,-0.9894381582758621,159.0192192913644,2.9295358143125694,162.11667541893192
259,1.5495455547409709,4.091877428856606,4.374982125220932,0.07465774579310346,-0.02554208131034483,-0.983660937586207,159.28657369901794,2.749976642531001,157.77761235251953
260,1.4572070138038535,4.024727791317647,4.2799990857540795,0.0697151205,-0.02878715976666667,-0.9881386719999999,160.12275876969233,2.8375399916064947,159.93842765545722
261,1.6878626092341742,4.108062120416692,4.44073989305861,0.07206495786666665,-0.02932521736666667,-0.9865466883333333,157.69262413803784,2.8687430539240384,159.8223355955249
262,1.882111683850508,4.684707596113152,5.047864073766744,0.07652101400000001,-0.0275714571,-0.9866946329999998,158.14896523570997,2.8430584144849984,157.43469205271822
263,1.2708534300711203,4.084724491736525,4.277534965792396,0.07098813227586208,-0.022358289310344823,-0.9884069113793102,162.74274543822997,2.6884295040554376,160.6127156060646
264,1.1017886968312507,3.7231101839618224,3.882496444982645,0.06591551493333334,-0.023103068,-0.9869118233333333,163.53484307981,2.6078327222791247,168.563374815509
265,1.7336212439808842,3.9569484831500854,4.31950274015585,0.06912395055172414,-0.027034096724137934,-0.9860154331034481,156.36785592427842,2.5874797072324234,173.75527522968133
266,1.3703199990992694,4.112728962214819,4.334638407808897,0.07221249223333333,-0.0253270882,-0.9878620539999999,161.59869880274346,2.9342194274640487,170.1870390116537
267,1.7013838432223318,4.578090507696889,4.883385743795611,0.07609054936666666,-0.0306028061,-0.9852123890000003,159.64746618278394,2.640575953778506,176.7859479492913
268,1.9592294119788156,4.3210543189895025,4.7437126248211445,0.07455232579310345,-0.031860216896551725,-0.9858250220689655,155.64225409571614,2.9137188433535735,173.11722070595644
269,1.6419337106731406,4.378021784477483,4.675229604218352,0.07245072250000001,-0.028260030466666662,-0.9882907963333334,159.47347653119883,2.4063531344052347,173.02867536087257
270,1.3584560817118079,3.918829659174915,4.147258151038812,0.06966115326666668,-0.023913562433333334,-0.9871201093333333,160.90555034690132,2.3571564286440654,180.59955722261137
271,1.1433940397915696,3.750239672585628,3.9204310927659427,0.062372083034482745,-0.02214814075862069,-0.9876540634482759,163.06500624568187,2.7196706567962563,164.00531741917976
272,1.0396916854929643,3.3127001016512008,3.471849070632799,0.06045068293333333,-0.01849384256666666,-0.987649489,162.59197412400556,2.740737508256662,156.05541284798173
273,1.3530226805210561,3.43395124197325,3.69059601466651,0.06055264903333334,-0.0203994361,-0.9871483339999999,158.51467441828277,2.6932767582834143,161.08300671366746
274,1.184472132745951,3.3068606994609335,3.5123700996222045,0.05456717336666666,-0.022405455166666664,-0.9867808276666667,160.31078669491887,2.5277356277345646,164.29950935906737
275,1.2296207172451177,2.8521594503922163,3.10572560060213,0.04739709686206896,-0.01822560872413793,-0.9899277179310345,156.69221199698654,2.5880640182674557,163.43117082040095
276,0.9470603301636941,2.0095407216661054,2.2214430825438307,0.03930028558620689,-0.0193890974137931,-0.9873906265517242,154.77339232427036,2.872055275946508,169.37641218504805
277,1.2066957217352914,2.5070455176885487,2.7821686418690046,0.04458894096666667,-0.018993316883333333,-0.9874644636666666,154.30845633404732,2.5245111907062974,164.9519420877337
278,0.798993276965403,2.9430559452276746,3.0494929070213908,0.049623957133333334,-0.013810652856666666,-0.9871292656666668,164.82299846730584,2.3988359809067603,169.17307563793963
279,0.63354986011154,3.3074739413987766,3.3675396577351586,0.057562576068965525,-0.01596040455172414,-0.986833744137931,169.16762062721867,2.485769022602952,159.02706649052823
280,1.104276160097255,3.4539656265992904,3.625993221440077,0.06111034713793102,-0.017449042103448272,-0.987995035862069,162.28835242270586,3.155422200766823,151.78438722126577
281,1.346419079311314,4.05355323556276,4.270961538687562,0.06869043394117648,-0.02343439738235294,-0.9867765629411764,161.65115326621836,2.704720707382035,155.79652783920187
282,1.7466865254307258,4.06617716953109,4.42488266470846,0.067845416625,-0.024751502291666668,-0.9870573241666666,156.78181559623835,2.6313397586907477,150.1223957713452
283,1.0498118572709008,3.820971631212399,3.962359751665596,0.06503297986666666,-0.02074829366666667,-0.9875576420000002,164.65713923252113,2.8181438578249898,145.50182574869754
284,1.196454058674914,3.5699965123940998,3.7649069533237,0.061072815103448266,-0.018950730206896554,-0.9884636693103449,161.49170247205979,2.5603452281693495,143.84906315328
285,0.9353594864174704,3.3837982220890135,3.510551286908294,0.060662450900000005,-0.014888755900000002,-0.9869480166666665,164.56378545274939,2.3443613811571993,147.16463941336067
286,1.1229896585190882,3.5094554791808497,3.6845360602804202,0.0590627641,-0.020816472266666664,-0.9866916976666666,162.27454141411437,2.019993620078119,145.93720952779935
287,0.9039425650750995,3.0990104681024144,3.2280305221350507,0.05423240035714285,-0.015388222035714286,-0.9868952310714284,163.75244278052998,2.224464626000808,149.31657096039714
288,1.538276274609149,3.599936915344259,3.914425234096558,0.0672462744,-0.029356858933333337,-0.9867191299999999,156.88495318686705,2.1532109420526795,149.7110312527877
289,2.2497082405216657,4.405279201216359,4.945472059582996,0.071338844,-0.029715758,-0.986021705862069,152.98114762198358,2.2618353704234524,124.7878650676529
290,1.4149918641186545,4.044160946291461,4.2841700998775325,0.07173406413333333,-0.026591501833333333,-0.9870802813333334,160.74186512356505,2.210212311756303,116.4744829387184
291,1.3731404508568157,4.152540720635445,4.3733061297112075,0.06931770993333333,-0.023467734066666666,-0.9858388300000002,161.7289052999536,2.399270185982808,147.3591434744962
292,1.2785240344588926,3.877329378971521,4.082378070423679,0.06718989293333334,-0.021173059799999998,-0.9873636806666666,161.77356422614412,2.677451986504371,144.59900882070087
293,0.9724094558244673,3.687111911631446,3.8130130777073443,0.06398513024137932,-0.013512156482758624,-0.9877380975862068,165.24383186514478,2.7164503516400234,141.23210636539707
294,0.3890973916079954,3.534339365426623,3.555665823995657,0.06200284796666667,-0.009393487810000002,-0.9879585249999999,173.72538625579213,2.5541380305041583,162.29232102342354
295,0.4103410088890381,3.4229470072395043,3.447425936822339,0.05992251096666667,-0.00668807065,-0.9877410553333335,173.17197770609695,2.5720069205809697,160.6170474941317
296,0.5243702774760083,3.687570531492112,3.724615530442243,0.0650970972,-0.011184470686666666,-0.9864001776666667,171.91764105712056,2.6071116509570285,150.85775681952762
297,0.8276562411064802,3.948751689981933,4.0344231118066824,0.06187045547826087,-0.014873195499999997,-0.9885600226086957,168.17962375760519,2.40698974791893,160.68517937170404
298,0.5397730704387751,3.0625166239756667,3.1096761113096676,0.05937287734285716,-0.00848243174,-0.9869370197142855,170.01323572262933,2.1592837993008813,170.5745150637696
299,0.7876613302523071,4.519248635954733,4.5872357090418205,0.06528431833333333,-0.0181568147,-0.9890580310000001,170.13271093969198,2.1775518258396174,143.16257506192449
300,1.1744179352270783,2.9580845628686276,3.1824983979744337,0.054605256833333345,-0.011002825456666667,-0.9882038660000002,158.3606595213235,2.4480456667573027,153.14859162615545
301,0.6078955392462333,2.3942671304838363,2.4701896595158694,0.05010670488571429,-0.012243453622857142,-0.990061541142857,165.76128423672424,2.407311643271488,168.51694149263895
302,0.5353619725818372,3.660356490573847,3.699247498015227,0.06113801595833334,-0.00596245871375,-0.9822878616666667,171.68987315863836,2.0343441255845316,154.54257025707426
303,0.6422572686135908,4.409025236407885,4.455466686603318,0.07001003267857142,-0.017732355457142857,-0.9884723017857144,171.7278852366003,1.7625934743669955,166.67190844609163
304,1.8508037106961264,3.751164492500873,4.182321536289418,0.06708939803571429,-0.024652055714285716,-0.9873682410714285,153.76312262050791,1.9345362064663918,166.4646986450522
305,1.3206957062936624,3.7490448059450325,3.9745545648887917,0.06521725630000001,-0.0230886339,-0.9875865073333333,160.61636039497657,2.205754707371478,145.60507566773845
306,1.5815111839528129,3.8335106834924852,4.146474192145076,0.06432875726666668,-0.026625590799999998,-0.9859857186666667,157.6064821487443,2.165607605857703,140.1606990571299
307,1.5334894513538988,3.7659450351843033,4.065777211180007,0.07075297562068966,-0.024604922,-0.9879097451724139,157.8679493946506,2.5008075851024674,160.64697562710032
308,1.4034689739711574,4.35421526949913,4.574398566371543,0.07373105475555555,-0.024914831866666667,-0.9863505500000003,162.16349563747204,2.3567070765129605,172.91919974574077
309,1.2743023482485085,4.302929530642278,4.487314888791395,0.07127180266666666,-0.02125801975,-0.9887630925,163.53024474866723,2.4747924266135928,165.2604623453258
310,1.2624915162999277,3.9796718222583496,4.174818381619068,0.06973833659999999,-0.020064350333333335,-0.9876150306666668,162.42304675487551,2.313750956236982,171.85443528499607
311,0.8206110505862365,3.708895631540977,3.798469223600567,0.06633323727586207,-0.017934003379310344,-0.9869403296551724,167.54008336567338,2.355791325943597,180.8502961122907
312,0.9872153243133089,3.76033632909992,3.8875858415585545,0.06435901503333334,-0.015268688416666665,-0.9886897413333333,165.30870641148013,2.710406960059395,167.46192000391838
313,0.9732193135131514,3.684398342674869,3.810595893150991,0.06265918506896552,-0.015909622224137932,-0.9878991403448275,165.22164752507504,2.5511628734881535,175.39349899228625
314,0.7523953510574214,3.328668015365093,3.4125492636553876,0.05706543377142857,-0.013884581385714287,-0.9877640117142856,167.27634589392812,2.501601961253319,182.41696705923616
315,0.8697255120518378,2.9823332759651016,3.106453115772419,0.053567340666666664,-0.013346083666666666,-0.9875281808333333,163.75467891077668,2.233748561167084,169.81947771819472
316,0.5560150209297204,2.894335630199653,2.94721367201169,0.0507443615862069,-0.011107789558620691,-0.9921078389655172,169.13439602760675,2.0083298789459194,175.65158717500051
317,1.0746748180714358,2.9664914270943825,3.154990516137703,0.05222885786666666,-0.017571207023333334,-0.9857719836666664,160.10024938791446,2.2405681429243653,172.32604770444965
318,1.2699400118848705,2.921402299026647,3.185269398238154,0.04937452734482759,-0.01845816675862069,-0.9885218310344827,156.52003921053705,2.275534053634702,178.86964698524838
319,1.0582871878467655,2.7474717909144473,2.944098236885699,0.04935832156666666,-0.016698402983333336,-0.9883718863333333,158.94657192789066,2.4913836270014365,172.87762182125533
320,0.712869492544469,2.8134671028639113,2.902304521236533,0.046870444034482754,-0.01612282505172414,-0.9889856165517241,165.79202739471413,2.7864185777283943,169.8412883028529
321,1.180981407478383,2.7295979882914283,2.973948035219493,0.0511995333,-0.0190458485,-0.986905106,156.61675481849068,2.815766438027193,174.03052957373114
322,1.3248553063315234,3.222591071034131,3.484032641450843,0.051697021999999995,-0.019693416233333327,-0.9887757180000001,157.66937057565792,2.6590043013348588,167.63872333245038
323,1.2303723797382051,2.773127183130369,3.0336229606658205,0.04680891506666666,-0.019550620900000003,-0.9876432780000001,156.08757258786736,2.5617234357775764,161.032740657249
324,0.9361974122367782,2.381035407073489,2.5583765540204864,0.04456348003448276,-0.013996409086206899,-0.9880674586206897,158.5452820083085,2.6612853757711177,159.14745264770255
325,0.46426307325964455,2.653000559724973,2.693287602049906,0.044013412413793106,-0.009723802582758618,-0.9889517037931035,170.08074759679636,2.7538400252668196,153.20507732002608
326,0.40367216336303985,2.455882603991405,2.488817143359403,0.04264673395833333,-0.005907697437500001,-0.9870371816666667,170.67125172629628,2.414548865575289,163.6485526383181
327,0.26063306654988505,2.317159776299238,2.331763707123801,0.04119045666666667,-0.0063281610527777775,-0.9888198647222226,173.58579701884116,2.2753691515410273,135.01706755371413
328,0.6471946084576545,2.374865388552719,2.461423688133417,0.040178491000000004,-0.008939506736666667,-0.9880401316666666,164.76372593062507,2.1931994706230853,162.2631516593475
329,0.6769889800882616,2.2066991168139127,2.308161267064633,0.03982152413793103,-0.011744158672413792,-0.9895818299999999,162.95180820464608,2.1854593112403706,155.47732064764455
330,0.6924536456898427,2.1639885281590234,2.2720278129466878,0.037787543766666674,-0.011420502833333334,-0.9893464783333333,162.26297279563335,1.9245324991372381,154.36010755824665
331,0.27714616841817763,2.3238313799290102,2.3402906142255846,0.04027406050000001,-0.0020747227000000004,-0.9865639883333335,173.20252270084916,1.8060253236112187,155.5259001261638
332,0.08102564673452675,2.088809044188567,2.0903792645614683,0.036625473533333334,-0.008418760323333333,-0.9903946536666666,177.7795718091263,1.6542130696208668,153.61569200733106
333,1.0438862510670734,2.2005182255048465,2.4354554229865197,0.03898146134482759,-0.009301426610344828,-0.9871985186206895,154.62963550062483,1.6176131338903654,149.8520728737398
334,0.11316892453583147,2.2983945643807586,2.301177504806704,0.04154423378571429,-0.004970394179999999,-0.9884718146428572,177.1826387659667,1.7096526854146321,158.84586639724972
335,0.49329605879214444,2.5451069665333637,2.5924410116647567,0.046861415464285724,-0.005712030588214287,-0.9894303653571429,169.03763990907166,1.8638225079627868,161.5261934146306
336,0.3947508588195367,3.281214784770364,3.3048492119700126,0.053789709583333324,-0.007006802945833332,-0.9870963804166667,173.14724817287538,1.8880201205686002,171.05406567035905
337,0.2926382545745614,3.05531130439463,3.0692805553095224,0.05234190877777778,-0.004658991285277778,-0.9880937672222222,174.53399794928492,1.9406134440579308,167.81908392099447
338,0.3917868737346864,3.237748827158542,3.261341901598413,0.055650238,-0.007907874906467709,-0.9894409525,173.10758349167776,1.7291489585810462,172.38315068743353
339,0.9555302568077563,3.093708717524628,3.237774573636326,0.05571600037142857,-0.01824579884285714,-0.987665452,162.85025674324328,1.7624152724026463,176.97169149402563
340,1.6311630142740066,3.138733461119357,3.5369023562501583,0.05331695493333333,-0.019820912766666664,-0.9886625079999999,152.5567583800064,1.8306735563896137,170.61982958371124
341,0.4440887100388397,2.742322776326842,2.778020585506798,0.04686152953333334,-0.0046063853899999995,-0.9878304563333333,170.8081628826961,2.346490456444091,165.98310014359825
342,-0.36125924476715415,2.5983449669150733,2.623321430757431,0.05015877720689655,-0.00023848447310344822,-0.9892680406896552,187.91008526986946,2.0074758245083,174.9635639199953
343,0.032631652870619615,3.4936939639210753,3.493846164080715,0.05869427783333333,0.0006826816766666667,-0.9872466529999998,179.46552724328325,1.9788355353874831,166.92986697536466
344,0.41053887684884877,3.7078581587687935,3.7304850819510094,0.0630120062,-0.005001169548666666,-0.9855364463333334,173.69051548495375,2.6672653324604614,164.75678402778266
345,0.8698118455189641,3.863693198211804,3.960246281054897,0.06362312131034482,-0.01609978903103448,-0.9871263593103448,167.33050294950678,2.4864627036526383,168.8719294117049
346,0.7137970917696268,2.966157190541282,3.050760481183588,0.05405780523333333,-0.009785900489999999,-0.9886668249999999,166.48018783793884,2.2536983162883315,174.05996274769936
347,0.6501431296325072,3.7422450066487842,3.798220971104621,0.06678119489655171,-0.018299420706896555,-0.9847867151724136,170.1576601298776,2.3911811477801925,177.78563493265446
348,1.7539511855609196,4.203612234797663,4.554248409689438,0.07264573392857142,-0.01566208077857143,-0.9868020910714286,157.3819344816257,2.328492209633323,169.52468648024043
349,0.32843188693237024,4.25517325538025,4.267806057903073,0.07197366643333333,-0.008427327563333333,-0.9895987280000001,175.59446250992937,2.1769857287992154,165.76044568165403
350,-0.4604050793024053,4.876117336732991,4.897752659566398,0.07570637833333334,0.004972317872,-0.9837309626666667,185.38106381510863,2.0865941658402893,183.11524867668908
351,0.24892660377859063,4.118085844174524,4.125589501701649,0.08324066017391306,-0.006481165589347825,-0.9914353230434783,176.54676420186502,2.0234921182559056,183.64015390499233
352,-0.07254130347714316,4.74975769673144,4.750310343377559,0.0787827261111111,0.02331846607916667,-0.9831149438888889,180.87298483599605,2.0591407295142763,183.4114691219747
353,-2.8904177731939296,4.052448973712787,4.976235458270847,0.061400666500000006,0.02607854566666667,-0.9894602446666667,215.47621900518558,2.0947226831904326,174.08456818102263
354,-1.32997766863198,2.7441916081063082,3.049274566635027,0.06251105562068966,0.017803060344827582,-0.9901904313793104,205.84407431999665,1.893678183056475,179.87912300736656
355,0.1673927778187552,3.6201702824551285,3.6240331011798648,0.06146266296666667,0.013728512332000002,-0.984743284,177.3561019192657,1.9890214616812092,188.60557508660384
356,-0.13260451435650872,4.088492344969835,4.090638551207105,0.07576925919999998,-0.0054643384,-0.989617824,181.8545084751821,1.9207081431410569,185.50127317749326
357,1.2483888296586443,5.141590914219673,5.290580878337243,0.08764196448275861,-0.013347973416551724,-0.9841822913793101,166.3857750586038,1.877589387741402,184.02491183202386
358,0.6178965543917772,5.899574450546952,5.931730320147815,0.09162232990000001,-0.010180626346666668,-0.9879043073333332,174.04164470477633,1.7345203600605794,176.53624536577996
359,0.025535219001242743,5.383482762503973,5.383543143842584,0.09079386720689653,0.006897466858965517,-0.9818221403448275,179.7290338727986,2.336267985267126,174.98988694417804
360,-0.8363621531422974,4.663606798179421,4.737845980673263,0.0866090811,-0.0012981847653333334,-0.990255942,190.14594240635782,2.0553525623784084,157.45904202181765
361,2.139767771029196,4.589079982466642,5.062456449572711,0.08213839196551727,-0.026545442805172414,-0.9817291320689655,155.03836414290095,2.1724110406792696,171.12042443710942
362,2.6060892149018255,5.097411469198956,5.723405791011851,0.0898631524,-0.0350669317,-0.9856823066666668,152.9666102650653,2.3573639735417675,167.85107822928853
363,1.6041633689338077,5.871890980015456,6.086331226813843,0.10134430683333331,-0.041778624199999996,-0.9854373723333333,164.7672592660906,2.574923676585674,174.08662791834314
364,2.444557807351039,5.996813967853537,6.474241346466792,0.10415769253333333,-0.03650823066666667,-0.9813604236666666,157.88318590184397,2.5488161796168773,180.71032573219205
365,1.4526049323063568,6.812661428244698,6.96508887179592,0.11097153462068965,-0.02597825856551724,-1.0018211513793103,168.0162007010472,3.364342886385824,195.82524005104287
366,1.306073040310157,4.199114008785477,4.39719569067541,0.07449059629999999,-0.017248563178533335,-0.9781291466666667,162.74875398592272,3.8552663209100544,174.57040622953843
367,-1.0518796657134155,4.105156852772579,4.237554672388597,0.06140896051724138,-0.01989563024,-0.9851121099999998,194.34986508738285,4.0118453969358505,166.4913405621848
368,2.743821793547949,3.953233278408486,4.810889627596603,0.0716470055,-0.025674708756666664,-0.9824453609999999,145.25873916800313,3.825914122393449,160.52184423299568
369,2.2080507276758694,4.285623057924602,4.82005770686638,0.0625593142,-0.026429472813333334,-0.9952105476666664,152.77343985311103,4.016954279872375,155.05340174547314
370,1.258216096035797,3.230298818235107,3.466447809805942,0.09104508296551722,-0.02665492505517241,-0.9865043362068967,158.73628516096267,4.017061491866282,139.77397207937193
371,3.0227063891438695,4.98443288513739,5.827371614712865,0.09569086043333333,-0.056817087633333346,-0.9875103693333332,148.80674858984364,3.391214356563842,138.67027421756595
372,3.7304319714354945,7.433111585099402,8.311984672599996,0.11294198276666666,-0.05269536249999999,-0.9755442393333332,153.44620464469082,4.034752068904329,163.01389637776188
373,2.8067788574313797,6.872199545773862,7.420735383300549,0.0821268980357143,-0.05108650432142857,-0.998828674642857,157.8639939047856,5.598851436492118,171.45279477290148
374,4.581389607742728,2.3089186034216964,5.129217097364212,0.08433953032142859,-0.08580471064285715,-0.9706433989285713,116.71042728679677,4.592290077231694,156.58315301440462
375,6.583479369046609,6.798261778501673,9.452766733724856,0.11675090043333335,-0.10889424086666666,-0.9751041713333333,135.92795145329637,3.947247518045577,179.8902801427112
376,6.76307516933506,7.422825625167332,10.02901330098297,0.1146093895172414,-0.11692417772413793,-0.9829946372413793,137.69006495133848,4.049358226785267,129.5970854474651
377,5.730103458183085,6.58448489929371,8.720364598305943,0.11262940910000001,-0.08898737126666667,-0.9787432173333332,138.99927434435415,4.633382087930122,159.16069513540785
378,5.043067916205612,4.346301086559077,6.6538741257090175,0.06804896396666667,-0.08101492639999999,-0.9757712930000001,130.73708993500156,4.145730580476965,143.46564380490247
379,4.244429089271255,2.0563461681948914,4.715506259978164,0.06811546573333334,-0.08318185799999998,-0.9850046706666667,115.8178086624425,4.346980016991435,134.63656516206478
380,5.902446926465369,5.9973121436135255,8.40709304279512,0.09957989003448275,-0.11608173903448277,-0.9746585758620689,135.4600538434985,3.149172894212831,96.12113875481046
381,7.495880855927751,8.48571636828056,11.304146074426116,0.1290948053,-0.105683235,-0.9864983420000001,138.5902209766336,3.993154692975255,115.91350647014772
382,4.5166796732310805,6.720292330834702,8.091294624514527,0.11003499266666666,-0.08823286009999999,-0.9797455393333334,146.16209629697835,4.962176675885162,135.1483190565123
383,4.961906513661359,4.695694912887067,6.827509943934503,0.09694142006666669,-0.08414346726666669,-0.9774927870000002,133.41355068175983,6.651866936702561,133.1757483336543
384,5.214975709558733,6.803117336903775,8.56448361585991,0.1121801378275862,-0.0961482159310345,-0.9803083148275863,142.5816681393395,6.487953875813513,122.32643665926332
385,5.412979219713184,7.376554682726378,9.140664102743784,0.12280122593333333,-0.08610752926666668,-0.9829263326666668,143.79853538811057,6.166687365134143,115.25861286949687
386,4.194328932009177,5.653648581146803,7.03555133836469,0.08707251570000002,-0.07003486113333333,-0.9760487923333334,143.4691595189089,6.045585125851468,124.84307741722142
387,4.164874047823118,4.231458991820611,5.93463239521453,0.08867936673333335,-0.06546768363333334,-0.9824619126666666,135.45598995677463,6.812569252850036,134.58053182456314
388,3.4015119527886246,6.511800326397954,7.343293211299628,0.11520011620689655,-0.06664425451724139,-0.9837556644827586,152.4930109623139,6.229832349741681,134.0138069727369
389,3.7009899525665113,6.5007401882738645,7.476503694809682,0.10157663934482758,-0.06191169196551725,-0.9795494631034483,150.418029083793,5.830996773151488,135.9167119921692
390,3.5287234406016506,5.505803545495664,6.536620001077037,0.09229665429999998,-0.06838790149999999,-0.9895130746666665,147.39112702689354,6.135741889699154,133.2817072934987
391,4.143520034992546,3.9841899485845076,5.745853853016867,0.08082578292857143,-0.059830257678571426,-0.9855542478571427,133.8731835118111,6.201844508629306,126.34935556994384
392,3.193728882219881,5.946465409145088,6.74712521669992,0.10099070220000002,-0.0563250286,-0.9826198296666667,151.82180585250404,5.472936114423997,131.0276064717133
393,2.374978251434955,6.112416077295048,6.555969419683375,0.09667047486666668,-0.04734821536666667,-0.982445973,158.82878726079366,5.46497635418612,134.34957830665803
394,3.0411332974243837,5.399297077802623,6.194634997611002,0.10404073153333332,-0.044406259833333336,-0.988017169,150.65940422316496,4.605903752266379,129.95138264587553
395,3.015628735122979,5.24729139376284,6.050011553901172,0.08330793703448275,-0.059241657931034496,-0.9827419862068966,150.16037800901904,5.361799291497223,150.55669735684452
396,3.5939595452731825,4.429298119255432,5.701708468097752,0.07810161129999998,-0.050366692700000014,-0.9835934696666667,140.9630345232191,5.74228712067762,143.88506611137004
397,2.9997408720332586,5.17536213740659,5.979826756078638,0.0919037584666667,-0.059323412833333325,-0.9879123513333333,149.94756993607706,4.780318505463697,143.74487126461682
398,3.2357738030738554,4.773201583453376,5.764498862707252,0.07611963337931034,-0.04928726931034482,-0.9823808220689656,145.8998293822306,4.733863760849285,142.15029018030756
399,2.7980161470418943,4.489987035664577,5.288935891826124,0.08595178310000001,-0.054494460800000005,-0.9843125153333333,148.1024169986619,4.26178791362685,154.20199376121028
400,4.001719770091873,5.62083068668706,6.8960914213666955,0.09359954286666665,-0.05954394936666666,-0.984896335,144.59420121879046,4.205027859723795,133.2827207840428
401,3.3556677734605143,5.499319756691999,6.439597509680692,0.08972489962068968,-0.06428618972413794,-0.981451365862069,148.65781458813086,4.91403409251885,136.2114599856159
402,4.446180298344811,5.154037880406549,6.802885710299746,0.09739964233333336,-0.0698246776,-0.9825417900000001,139.23660409495704,5.058288419865342,135.98716332293105
403,3.7002064111365938,6.063514235615597,7.099758210545492,0.09804139883333335,-0.06706967466666668,-0.9819005066666667,148.6666109699294,4.71525623183038,138.88112462797383
404,3.8095680456679415,5.082291197766693,6.3485745043143895,0.08638326100000002,-0.06494195631034484,-0.9825004744827587,143.1773039376862,4.598043301810333,150.0555131522218
405,3.7497708594789803,4.985514664923138,6.235432899504122,0.09434572093333335,-0.057632104033333326,-0.9842466516666666,143.08220827625485,4.279322813639879,143.54760905272988
406,3.5077134708939983,5.4848744444261905,6.507709586245154,0.08844874766666666,-0.06744373326666667,-0.9861928656666666,147.44714824202416,4.315502497442422,145.798770596172
407,3.672224744380567,4.193124793860473,5.571664010907175,0.0708961507586207,-0.05962840575862069,-0.9886883637931035,138.80084532745246,3.966151435239555,146.66258126190013
408,3.153916472834436,2.799211003843731,4.216023522002894,0.06689076296666667,-0.04892127989999999,-0.9814383386666665,131.58406763623157,3.950968836573542,143.1129496415121
409,2.232426081859958,5.776512137224118,6.191519993057061,0.0893220738,-0.04380086383333333,-0.9817241326666667,158.92579085795845,4.238127971636424,144.61528540548306
410,2.7829620930493286,6.498236606396607,7.066733018693882,0.10787625256666668,-0.04304052640000001,-0.9897360583333333,156.88905159480527,5.262335194541424,129.23407464672658
411,1.497535153575371,5.707115694632092,5.899691429785098,0.09928774431034482,-0.03229945596551724,-0.9866532575862067,165.34053454508307,5.235754310552853,131.91234871501493
412,1.9778911607384753,5.380571876909919,5.731587874144643,0.10353454441666668,-0.03484157216666667,-0.9804783983333333,159.86387603537943,5.049829074091843,129.97819343199632
413,3.149629922922864,6.998897297871574,7.671722853079195,0.10742297008695653,-0.04235371904347827,-0.9841404669565218,155.85669112789955,4.969561491572668,139.60705272580174
414,2.0966549292534844,6.293625856417497,6.632344398146524,0.10813357711538461,-0.03253523503846154,-0.9874915365384614,161.63658604054743,6.008564033862204,133.7272629720555
415,1.2434267669041195,5.985118615845775,6.112456710203768,0.10655959556666666,-0.031006473733333324,-0.9814886993333334,168.303333887452,6.4092766808222175,147.06014102903325
416,2.936215736688518,5.599595530592926,6.320550759765545,0.09670723259999998,-0.04167245616666666,-0.9778217293333332,152.3837015030657,6.464321473885407,141.26677983628443
417,2.418466373675342,5.090013502574697,5.6339879498019405,0.09075666734482758,-0.03890701089655173,-0.9847176824137932,154.63107121252673,4.334130976191168,161.691893015489
418,1.8178007612157028,5.596821390209618,5.883731106605851,0.09227379323333333,-0.03516304520000001,-0.9894484866666668,162.05459314340553,4.436211512455012,162.41686419953595
419,2.3506001770607,4.565476044259137,5.133925636185511,0.07533631056666666,-0.03353580913333333,-0.984042376,152.79400343766162,4.550188528758536,151.57178075182313
420,1.627465435810979,3.2193916316559616,3.6069846203781957,0.0657564692413793,-0.02980631304482758,-0.9897894100000001,153.2005959468776,3.6734759881632084,148.9049491945198
421,1.563146098071425,3.1256041347341985,3.4943386367991542,0.059271950733333335,-0.03502000103333333,-0.9805097669999999,153.44696544767277,3.871568263756438,155.19276281874207
422,2.9307024215769184,3.811649375981505,4.806767202192126,0.07015647131428572,-0.05604392514285714,-0.9913753402857144,142.46074670494687,4.00869361907662,142.43489656418217
423,4.797029315767403,5.737779753319629,7.473726958021139,0.09102345925,-0.06179445708333333,-0.97699570875,140.13141741049554,4.310665871620128,144.30198128369506
424,3.5658651956925,5.449269068653831,6.509343748381034,0.08794451237931035,-0.05623689941379311,-0.9948524944827588,146.8456495217329,4.7263450097591635,154.33337943352674
425,2.6901348079920786,3.8852015198421244,4.724459665901855,0.06633738892857144,-0.04314702610714285,-0.9771867389285714,145.32248633720386,5.243420862110778,140.64745889898197
426,2.618456590167838,4.299084713282348,5.03245175793561,0.08065899153333335,-0.05147146673333334,-0.988938017,148.68562710370423,5.229792732731162,132.22764623957593
427,2.986952619883584,4.126343559085249,5.092461501408223,0.07248109965517241,-0.04866231575862069,-0.9841440810344828,144.12263513826372,4.862419997114803,136.12360862929657
428,2.6399592255461672,3.978776605616772,4.773765808119298,0.06763959575609757,-0.041494772609756106,-0.9868997234146343,146.45910105744014,5.228700090691978,136.0363332743701
429,1.4737761244094496,3.9318075521037343,4.198537369909229,0.07928812552941177,-0.038382424,-0.9895624058823529,159.47770586497026,4.861190362710405,142.23385159487248
430,2.328819168698963,5.054289262556804,5.563736339110137,0.08241844773333336,-0.04441473503333334,-0.9833549513333334,155.3061574636987,4.575903856924581,137.86016744189675
431,3.2501222160887635,5.1685752743401565,6.103178663317978,0.08547105643333333,-0.048429377999999995,-0.9831295059999999,147.87978853951176,4.45888426391272,137.609007262669
432,2.9372528891236933,5.449614192790968,6.188676167071049,0.09847450106896552,-0.05082694310344828,-0.9853295793103448,151.72736667523137,4.602982806688349,157.99866347253536
433,2.894184078258874,5.329875033757159,6.062976993685541,0.09135625716666666,-0.04516540349999999,-0.9921783080000001,151.54649730958752,4.849494051432867,144.07415427374997
434,2.4647119309333076,5.168929787842631,5.7250457378308015,0.0902679872857143,-0.04543291582142856,-0.9825239660714284,154.5534281618524,4.451766738024442,140.93627797193562
435,2.4130690308064264,5.293077477878449,5.815754037171751,0.09133792503333331,-0.03802967306666667,-0.9820451596666665,155.5409771028958,3.792255781553225,140.0690283574908
436,2.3768848336476376,5.395667548428353,5.894582012359937,0.09182617550000001,-0.0417451601,-0.9850323156666666,156.27612370491408,3.6319810778029784,137.76064902414743
437,2.565481365734085,5.601032177674825,6.158918275486108,0.09904154873333333,-0.0455755915,-0.9778474926666667,155.4451619545467,3.473173951229065,158.7985926796191
438,2.8447681641443965,5.772473159059272,6.433253308324327,0.10187497703448273,-0.045430558448275864,-0.988621273448276,153.8235008261477,3.0634983953530157,171.40408856307903
439,2.311805463457507,6.238281002311384,6.651274819896996,0.11367165324999999,-0.04128392464285714,-0.9891609682142858,159.72987162966723,3.041047916215854,151.68920584488072
440,2.470881953042343,6.823674593166496,7.255266811775774,0.10645976675862069,-0.03692741606896552,-0.9874540431034484,160.1699728565429,3.679313216203464,142.87045102325132
441,0.7598109824553482,5.717721633815157,5.767818972122719,0.10634804653333332,-0.009962081846,-0.9813368446666666,172.4549001420339,3.4207102436444026,149.98471692069805
442,0.12572007758738982,5.60189457028625,5.603300627241924,0.10056983979999999,-0.007321351634999999,-0.98422496,178.71845557626733,3.508435290021581,152.3147618887257
443,0.5874625732641463,6.242837721551578,6.270308468691564,0.10333906355172412,-0.01434766269310345,-0.9823014231034483,174.64517170307275,3.7676882514606422,150.8724035536349
444,1.1456805173309716,5.828886163045819,5.940030828047988,0.10542907817241379,-0.015928118579310344,-0.9781474179310344,168.91613435535692,3.605501282706088,155.75647941275474
445,1.4627364609855664,6.250155136384653,6.418375433918123,0.11041529663333334,-0.01913779025,-0.9814860863333332,166.87574222849307,4.133631576916686,153.31404864275086
446,1.1149649413468354,6.603302409848085,6.69636024416744,0.10892260483333334,-0.019456597500000002,-0.9854376736666668,170.45653394855054,4.892594347994751,153.06276343599237
447,0.9065164543727625,5.9331346793870114,6.001743056918291,0.10374719809999998,-0.015255542233333332,-0.9831119580000001,171.342918884516,4.50949209404985,151.56577613938362
448,0.572888545953824,5.868963875967062,5.896760939001715,0.10087181865517242,-0.012807838738965516,-0.9834379741379309,174.44404267439432,4.354729633493726,165.73332678395315
449,1.6276647073617803,5.585683056158858,5.8172801939239775,0.09705050896666667,-0.026983192533333332,-0.9849257486666667,163.7985749827025,3.700225340676889,151.47301471641222
450,1.914078709593004,4.887705006868155,5.248282138464458,0.0849953373235294,-0.025611649529411768,-0.984683560882353,158.6541476488834,3.0403993833976073,159.14461668581436
451,1.2142178590732202,4.881167689542082,5.029568015922718,0.08539039204166667,-0.02283215041666667,-0.9757986537500001,166.06136665621347,3.2621975499640072,169.16363109635026
452,1.577808929448217,4.478694613926671,4.74795889885193,0.08357935593333334,-0.022176407345333337,-0.9794422589999999,160.62510204296728,3.89928043667775,170.75604300248108
453,1.1174967817269594,5.242684902686697,5.360135890432227,0.08522834213333333,-0.021459324096666663,-1.003144742,167.9984264305421,4.187530345363957,165.4759171629073
454,1.171251153410544,4.071858174976371,4.2366906796016695,0.08151525739285713,-0.025551679732142858,-0.9874862814285716,163.9758837670524,3.7502936345710327,167.6944967390456
455,1.7397562559046227,5.452101436066215,5.72215171035997,0.08300946436666666,-0.0296640673,-0.9801979590000001,162.34724476879612,3.487070220741871,163.68840319468387
456,2.4771613362757394,4.959924359714044,5.542728581950245,0.09077362558620689,-0.032988530344827585,-0.9817859806896553,153.50384784910065,3.5119017237146473,162.32458983869313
457,2.312494292259301,5.304582328587836,5.785406991513212,0.09022056173333334,-0.03907391339999999,-0.9801897176666667,156.4942031298711,3.356688201674239,160.90717126026001
458,1.7621622288444516,4.959930396324506,5.26292354124421,0.08956271216666666,-0.034831227033333335,-0.9926358403333335,160.480405421272,3.0312218527612114,164.65064490245467
459,0.8852779597536341,5.121506075030417,5.197254379082201,0.08124666531034483,-0.030291813478620682,-0.9900161727586207,170.2179094115023,3.000472306799953,168.7045233802241
460,3.95510414266509,4.519352485066241,6.002910155853145,0.09239577766666666,-0.04714630846666667,-0.9855303459999999,138.82308076415654,2.9905652867419334,160.13935809509974
461,2.9289907196681337,5.878661003496553,6.5656310664080495,0.0940633446551724,-0.04803732565517242,-0.9908399589655172,153.57609286518368,2.7203288914256216,154.2649779348091
462,2.4626211155779507,5.177734498198685,5.732095406056881,0.0862383279,-0.04538835616666667,-0.9824563856666668,154.61031156864928,3.063026525351675,136.70062295501805
463,2.669141883613283,4.357221607599619,5.108420233218637,0.07666865533333334,-0.04244465360000001,-0.985925413,148.5400302217184,3.6365450635080094,130.32862196465044
464,2.6442888392878596,4.498333120582314,5.216597527880011,0.08439026368965516,-0.044914581310344814,-0.9816789137931031,149.58510374245134,3.3161496455608575,127.9795793701949
465,2.793356914580905,4.939232042051034,5.672699054396098,0.08212321853333333,-0.04494522713333333,-0.9928689906666666,150.55133818002184,3.394183203527833,131.96745277611444
466,2.3071199949059817,5.1278412965816695,5.6216846500285795,0.08966492736666667,-0.042581539099999996,-0.9797265723333333,155.8217750106005,3.902702959648121,131.3482277255044
467,2.442669999071879,5.010767329436264,5.5730785808860634,0.08465445329629631,-0.043050169666666666,-0.9838077244444444,154.0554298622282,3.4589745879550793,132.45918268147292
468,2.165929713749179,5.062310853830501,5.5050910874304915,0.08883523569999999,-0.02979269166666667,-0.9803537899999999,156.88025932952286,2.6877920927540333,129.19459013588366
469,1.9291940017943852,5.1294758191139165,5.479357835684709,0.08499241803333334,-0.03854944169999999,-0.9843111853333333,159.43209543674155,2.79587241993536,145.62900968905376
470,2.3028086133445185,4.833212038662094,5.352595681319594,0.08903082646666666,-0.042494284400000006,-0.9903623806666666,154.56514780285644,2.8680558708007133,140.91725630488787
471,3.1240117707148176,5.14207924595449,6.01449974098175,0.08229749789655175,-0.05007820206896551,-0.9863980993103447,148.76286242519666,2.5281592475759402,177.30833090275712
472,2.4337056905543006,4.082713727072468,4.7519938506267385,0.07142182007142857,-0.03912726807142857,-0.9869667603571426,149.22836236014498,2.65408960557228,159.8175008802119
473,1.5809442816647383,4.656336136713335,4.916843082437304,0.09250468810000001,-0.02218804116,-0.9872979483333335,161.28035207214768,3.1007059718212804,149.09242802342146
474,1.711145924704073,4.780115144908735,5.076487394025347,0.07835840682758619,-0.0250172,-0.9783860631034483,160.34088455432294,2.661917263616255,136.65422631720045
475,1.3316607349272667,4.930366435528784,5.106608870520504,0.07766719383333334,-0.03201244143,-0.9913175226666666,164.9184545645868,3.0204798157378727,146.66473600204716
476,3.07873781963742,2.6078594935225334,4.03398189993888,0.06069045813793103,-0.0424713498275862,-0.9830377079310345,130.2587340299197,3.1883858421840188,150.39766171602372
477,2.395393159723018,5.3859688256735465,5.893187215564168,0.0856407241666667,-0.031091797388,-0.9948854583333333,156.07339263396895,2.5375994199399,149.19704302932874
478,-0.5345338309902602,6.824507628147342,6.845310677693074,0.0830081285862069,-0.014380619416206896,-0.9894688689655172,184.45759899010946,3.72333054392164,129.4271433285035
479,0.1695253748288773,2.107444868692483,2.1142492203626055,0.05583912026666667,-0.024141489878333342,-0.9740305586666665,175.40301396126742,4.7262800401718765,128.91615518750842
480,2.7461688400779853,2.2784041663981363,3.567715333764474,0.05821894824137931,-0.011290582286206899,-1.0011146189655171,129.67463056460002,5.040059261483787,136.44647716682877
481,0.5889309045925871,3.3164249390219402,3.368252744110945,0.05034751520000002,-0.022099348523333333,-0.9939123750000001,169.9410556843899,4.742154875750272,128.62540725298612
482,2.144165367337263,1.9498518016580677,2.89785990906389,0.0424885863,-0.026061061116666666,-0.9750452140000001,132.28031543526006,4.822282424716786,139.8003534572863
483,1.3872413626955398,3.14077175916829,3.433213918388535,0.03603853993103448,-0.027430343379310346,-0.9932079899999999,156.1866072052639,5.363950831097357,162.22974841412926
484,1.9141504532599145,1.395501813178458,2.3686858534470674,0.033089440482758616,-0.014267513627586208,-0.9935519537931036,126.08897679539893,6.287324427748671,162.31071204903358
485,0.18354519247403253,2.0743289345127898,2.082429985872658,0.035502835600000004,-0.005588101182333332,-0.9780193926666666,174.94558290480376,5.964371868262602,152.75994944785458
486,-0.4010012764207043,2.7106554710668744,2.740134142327696,0.06178702446666667,-0.010474963509333335,-0.9912201206666665,188.40897391832584,5.625107674570694,155.32440505829524
487,1.8650399429722595,3.6023083148639947,4.055911047329901,0.057796417,-0.02454980867666667,-0.9885271033333335,152.6504121091911,5.200003747577688,155.9309864165388
488,2.0694124113628125,4.298640457167547,4.769983094354684,0.06860484948275862,-0.029402549655172416,-0.9927767431034484,154.32564470334887,5.604528897669613,156.6266549462462
489,3.0163718797232546,2.158802798614218,3.708722432523724,0.06030923206896552,-0.031614405103448276,-0.990536991724138,125.57888494488347,5.784974998168578,152.3994024588928
490,1.1411730300788712,4.857097992341406,4.989043563283238,0.0817108968,-0.022996601813333333,-0.9926140503333335,166.80708227576147,5.511078177104678,140.0975427172056
491,0.668796567145854,5.18893375215733,5.231739556710313,0.08729417013333333,-0.025103017533333334,-0.9900870383333333,172.6752359300764,5.048545043508282,151.61649640278586
492,3.3286275224533766,5.513407325539576,6.437638887440562,0.08731097396551725,-0.04503524906896552,-0.9808220127586208,148.92907277928592,6.004642721273729,151.90368686189913
493,3.1643688364873364,4.709757106873051,5.672078487824644,0.07565472703333334,-0.05020935876666666,-0.9834372103333333,146.1366655837879,5.525715725884841,165.46006355593755
494,3.045339572926896,2.641181707866601,4.0303055376525485,0.062188744928571425,-0.0555598430357143,-0.9826657721428572,130.92802999781767,5.62691365851973,151.17171944444468
495,3.7658889449284065,3.9827662710758074,5.479187035289873,0.06804791626666667,-0.06179495320000001,-0.9839719046666666,136.60812576689352,4.689234204335572,162.37056266550377
496,4.146340243389925,4.281454593193833,5.957429651566121,0.07072910599999999,-0.06859914313333333,-0.9740307766666667,135.9218059240053,4.784095435274891,145.93909118319218
497,4.081717224804557,5.467638817347755,6.819447843830331,0.10003203251724135,-0.060282084068965514,-0.990810531724138,143.29484567254073,4.361591973664408,138.0563843066381
498,2.369134322010046,5.658278643312003,6.132752571952286,0.0974127457586207,-0.05722986172413794,-0.988655886551724,157.33564446545026,4.131023083071827,118.74092300596965
499,2.960334248497392,4.928010587619884,5.746933315669727,0.08214220903448276,-0.05267894393103448,-0.9838844627586206,149.04603355313475,4.861798491458894,139.50510178301232
500,3.2889164059923592,5.621855589164382,6.510567407451,0.09559248943333332,-0.054152708099999995,-0.983200894,149.72421655636848,5.400293408969168,140.61984228599428
501,3.2015316456587635,4.593076202060358,5.5968012058900625,0.08236040023333333,-0.05191921186666666,-0.9855214406666667,145.1518431884145,5.538628020328982,143.41817351743555
502,3.223410412290397,4.3738742795666905,5.431478183801438,0.08443980616666667,-0.05675691823333335,-0.9801885576666666,143.63526347836896,5.687175576103353,133.72757140309625
503,3.5701504213282673,5.551778900438098,6.597597825269709,0.09421268989655172,-0.057218081551724136,-0.9898454748275862,147.30435167839804,5.908713359894027,138.27129890378527
504,2.9787486131367813,5.833906491493085,6.548031622960837,0.09177929520000001,-0.0546330257,-0.984054751,153.01090950669803,5.880740638435152,139.09447908381955
505,2.92056773834151,4.408847445951567,5.286852272991973,0.08544297170000001,-0.05394729093333333,-0.9842334,146.50744893939196,5.5189728554058455,139.74779450926144
506,3.543953049365241,4.424379706357055,5.666547335875225,0.07357929950000001,-0.051737655099999995,-0.9818502706666667,141.32503498850627,5.677528312158916,138.22741371957596
507,3.560759086421137,4.729146785851017,5.917349176618454,0.08801950693103447,-0.05874314593103449,-0.9765958748275863,143.04962423114594,5.591090346241199,137.88977523038173
508,2.744263076872648,5.228914597333619,5.903524803293175,0.08788630183333335,-0.05100116153333334,-0.9987545066666667,152.35592099448598,5.582002480703264,132.1495105126999
509,2.1081656638338218,4.527474493935765,4.993308801828506,0.08118962449999999,-0.03604229973076924,-0.9988603892307691,155.06729277783262,5.514087693084435,141.82179758348994
510,1.0049555626875164,4.070572401005802,4.192588171134877,0.07363451723333332,-0.0301309412,-0.9845685343333334,166.15303531526712,5.091766180103725,141.16593504623154
511,1.8432565097673568,4.006670053037035,4.4097005613942155,0.06316514426666667,-0.0265331978,-0.9935475690000002,155.32333043004996,5.21334817638759,144.10768397525646
512,3.0351402371078984,5.425723067405676,6.214739664753643,0.08717794976666669,-0.033887228299999995,-0.9767645823333334,150.82767280660843,5.247345770411823,154.53620825358644
513,2.318155663950297,5.130016744557278,5.6281922654495755,0.1083284597586207,-0.046919069793103445,-0.9804667051724136,155.72849973055304,5.123469996603283,146.79899714842875
514,2.5085455484971844,5.160043234712453,5.736011022340467,0.08814271750000001,-0.03207989275,-0.9852147260714286,154.11997563209397,5.046670768472114,147.04089923965878
515,1.3754405608589935,5.605775100165898,5.771525844808075,0.10190806999999998,-0.0311595439,-0.981373948,166.25397372064336,4.568772007189172,138.0056707896376
516,1.2619463527078634,6.485345063468064,6.6064666818180005,0.10777772943333334,-0.02308062455666667,-0.9908177823333335,169.03293034423035,4.754613444535492,160.5418793834368
517,0.8630102367412703,6.908591960653625,6.962026753121588,0.11786855803333335,-0.011045398022,-0.9778858366666668,172.91324608011254,4.327729390675685,158.6514359796958
518,-0.017402195880393625,6.645203562482485,6.645226246273484,0.11382196837931034,-0.007657463186206896,-0.9838385589655173,180.14937020722178,4.300436018007978,155.77980220718612
519,0.37913039435530743,6.541534844516915,6.552464641545535,0.11567240263333332,-0.00812296148,-0.9829846833333333,176.69734082586834,4.2291877141138094,154.7516893012317
520,0.5911697820507664,6.733986815812506,6.759766969324323,0.11505552365517242,-0.007462529396551724,-0.9763568720689656,175.00575337513862,3.678277165045051,165.99897803063473
521,0.5220391489666073,6.438651471497955,6.459691130135658,0.1127805857,-0.00909437679,-0.9882596476666665,175.3839743000158,4.650147309114178,163.7345594533116
522,0.6691013272099052,6.151167038925393,6.187312112126641,0.10649786803571429,-0.012014628510714288,-0.9786041217857143,173.8153888412001,4.8803786059054595,164.1150705677715
523,1.0635183347446997,6.360475455452764,6.448416013972461,0.11117399986666666,-0.008564001983333335,-0.9865368333333334,170.54479129958764,4.169089874265378,166.7308483028183
524,0.6455870290968576,6.636198348382352,6.66738672357635,0.11671012110714286,-0.008678273502142855,-0.9821125007142857,174.46808010083095,4.134265074394623,171.6037328725774
525,-0.39259085637695407,6.077741708745962,6.090360689565263,0.10764356324137933,-0.0006978578862068967,-0.9935287099999999,183.6821010264661,4.419610738847691,163.1244737595084
526,0.5207230029275906,6.60728335931886,6.627680046187494,0.11096419841379311,-0.008155882606896552,-0.9778310803448276,175.513595660272,4.456050008944432,158.41850307363924
527,1.3824392655119613,6.333792608064149,6.48230480379992,0.11502548029999998,-0.014959730090000001,-0.9838519333333332,167.73385119772087,4.6251302620099395,165.93901267489696
528,0.5494850927439767,6.542601894643282,6.565535768609341,0.11185303669999999,-0.00890951684,-0.9833528243333335,175.2198810005958,5.1664908049444245,159.53688732401835
529,0.030300228180810372,6.672662180169685,6.672730664429357,0.11937270593333335,-0.008677496443333332,-0.9818555093333334,179.74100176452566,4.447543351354789,170.90720094707177
530,0.6210523210694724,7.094176922940464,7.121171191152616,0.11990813996551725,-0.005610336365517242,-0.9724589096551723,175.0221263088822,4.786422308582444,175.8656028763498
531,0.4409117731749546,6.845238878860668,6.859356578738403,0.11565201196666665,-0.0056190540913333325,-0.9800933436666666,176.33201788001054,4.893032156420522,175.30508572074896
532,0.19946624713047878,6.402221643470063,6.40531521690184,0.11432523899999998,-0.007745911183333333,-0.98613795375,178.22290348738966,4.673192268096187,180.74041725964898
533,0.404336614294107,6.743348531680956,6.755403907183667,0.11600457661111113,-0.000585680501527778,-0.9806176155555557,176.58437132663286,4.86090410670638,175.10959794194616
534,-1.0395591681732674,6.729188612816515,6.80864811109209,0.11843144667857142,0.010960635835714286,-0.9817462196428572,188.74307440053707,4.547026360810143,179.28737211025526
535,-0.1939204753140327,7.002128613226096,7.004799987504518,0.11864860056666666,0.005932954944666667,-0.984909552,181.57847716458505,4.526435370225581,167.8292691013461
536,0.27491535459227556,6.958451292753398,6.963853164423211,0.12336639636666667,-0.0034796888776666662,-0.988327283,177.74863364172307,4.813385078929869,177.88016877390635
537,0.42632893059530413,6.919411850529261,6.932469418542924,0.11671609093333335,-0.0027866065542466664,-0.9808551686666667,176.49131510117667,4.626238314990037,179.97538841237582
538,0.2995150684475567,6.442443226159954,6.449372497301086,0.11269549379310344,-0.0057625087172413795,-0.9729258320689655,177.34937078389123,4.998181827367144,182.09065904708956
539,0.10355042357952378,6.400697766138677,6.40153184328987,0.11209175503571431,-0.0010534966615714284,-0.9868191182142857,179.07700750122436,5.126663447224325,184.06631877480598
540,0.026615521546064568,6.285116182606286,6.285172310381007,0.10837797516666665,0.002621414007666666,-0.9887836756666666,179.75834551134042,4.95715846398501,174.98734795025294
541,-0.40824913865986684,5.814139770570467,5.828405970611988,0.10184285482758622,0.006668717164137932,-0.9868327748275862,184.00283907444455,4.874324064763518,175.4233580135941
542,-0.47239036648284993,5.5756142914146425,5.595527011284704,0.0994630857,0.005957027993333334,-0.9839670546666667,184.82766788703086,5.071322433822292,169.80369642529882
543,-0.34485458621933357,5.673741120114569,5.684177513200883,0.10105548713793103,0.012890204,-0.9929432403448276,183.46689794133735,4.5451989230069625,174.93167880250243
544,-0.15497137445056527,6.10121523116151,6.103175614343177,0.0988007713,-0.004174286514666667,-0.98016221,181.44950684489953,4.476569136585528,180.46624227367798
545,0.4350454342588476,5.20523673128389,5.223335426192785,0.09726763093333331,0.011818810243333333,-0.9832511483333335,175.23541263763414,4.295969549823515,177.715367154258
546,-1.9397289212681275,5.7144028589447595,6.033611158315044,0.09566641566666667,0.020046314416666666,-0.9798325346666668,198.69832120003784,4.202424374207524,175.36752236113045
547,-0.9801985257695199,5.227753033886435,5.318601621355727,0.09466165993103448,0.011227754157586206,-0.9934598720689655,190.59179266312776,3.858949387851026,181.79089181797167
548,1.5216037390331947,5.76711461510845,5.963812893020922,0.09891820656666667,-0.01916415917666667,-0.9782926173333332,165.2642753117313,3.405490676738123,178.9884621306311
549,2.1469499150927334,5.542909927533128,5.942966790698387,0.09127323648275862,-0.027388117441379315,-0.9799392906896552,158.87823651823527,3.0643889752318,184.88188067888123
550,1.0768231230259804,5.53553413850812,5.638978286416429,0.08787189643333333,-0.03374427183333333,-0.9837552486666666,169.02395672588835,3.209899088033909,165.04373463570226
551,1.7026427881843014,4.752939945066476,5.048046888985461,0.10170623749999998,-0.015899381143333335,-0.990634352,160.3273925576819,3.092087392815989,157.3666501668629
552,0.2463389582353095,6.515185769088628,6.519821064483644,0.1051548031,-0.010058049737666665,-0.9839777013333334,177.84399861233558,3.459233234566827,161.04205071226968
553,0.45910673580068717,6.374009951116468,6.390454725320905,0.10633807758620689,-0.014056367072413792,-0.9828297351724138,175.89708213074638,3.497227250081709,154.69491678632204
554,1.3887861308139753,5.859981632935754,6.021742408085118,0.09968071049999999,-0.02438141306666667,-0.9781567956666668,166.70953374133765,2.9269857024016903,165.51220896322047
555,1.7395177902307377,4.205682422781229,4.550631817635837,0.07306257665517242,-0.0036719891713793093,-0.9983906520689655,157.5596150061738,2.860375152273021,149.70443083605804
556,-3.507540883597047,3.0183409402620494,4.626212193608129,0.06114106833333333,0.015237980689999998,-0.9831056213333332,229.29624402207128,2.516826989720005,158.277255320602
557,-0.7539689108556717,4.253430624124094,4.3196176349066215,0.06007767123333333,0.03327208896666666,-0.9876343160000001,190.03438440860023,2.60684194211473,166.9444729460698
558,0.11226961748221227,2.8881209948652278,2.8903004464357727,0.05293032,0.02341961093103448,-1.000250346551724,177.77574919563017,2.949587064045702,180.71543491799608
559,-2.616542399477462,2.273418326213652,3.465707895354603,0.05752520103333334,0.031023311566666666,-0.9858425346666666,229.01865043751553,3.503927054545601,178.5726840717249
560,-2.081563290479249,3.1525708955706917,3.777199371143179,0.04723833466666668,0.02135851127,-0.9863143213333333,213.42076990854213,3.350268848948294,184.58845013812282
561,-0.560787988909868,3.8714728879827605,3.9118162955807376,0.056680271206896546,0.024073931113793103,-0.9775319844827585,188.22992799570267,3.6597236098385904,188.1824272524068
562,0.5716714904923043,2.7662704916629566,2.8246781681929054,0.04113665163333333,-0.0009386739693333328,-0.9922844213333335,168.33219552841337,3.642838183476601,187.99242365528048
563,-1.305095806475116,-0.7740317944971505,1.5173320862513218,0.033209699716666666,0.004655893750000001,-0.992537195,120.66869412047444,3.8684470750744344,173.1431399357794
564,-0.33137813438086694,3.809779825484563,3.8241432897279104,0.04243907172413793,0.014192226369896553,-0.9969891896551724,184.96389105047075,3.330487913066572,143.94016761866936
565,-0.16677702019135215,3.58505929230546,3.5889313722865936,0.05387587716666667,0.020390056416666667,-0.9873821063333335,182.66001602740474,2.7781662074009006,182.84586431274246
566,-0.7992313316724322,2.2142824082993258,2.354038924212928,0.04261252183333333,0.0048791562153333344,-0.9957787836666665,199.8388053750968,1.956930136892742,160.1925271294836
567,-1.76554551984696,2.5121352923675935,3.0701753810957757,0.052188672827586206,0.0087938373,-0.9892078700000001,215.091059426994,2.567176790007288,142.97987394865686
568,0.8353270018732235,4.369657082411991,4.44863134572123,0.06091228253333335,0.00032842657966666676,-0.9846063506666667,169.19735244559922,2.8138356441315824,182.76364112043788
569,1.2519527201086165,4.1046965550689345,4.291064781449141,0.08828657346666667,-0.0023065826166666654,-0.9868356576666666,163.06285952183526,3.4975314688226056,176.4160923279067
570,-0.007725949729470922,5.344836413130164,5.344841980842644,0.0863979414827586,-0.01093572005172414,-0.9858871079310346,180.08258049353122,3.2983021632477096,162.54344186633313
571,1.4123244375636863,4.038088533840313,4.277559527409329,0.07176712036666667,-0.02829801847333334,-0.9789116633333332,160.74864359618368,3.7762390895839753,149.34455858802914
572,1.9693040440745675,3.7211600524759234,4.209481659219467,0.06661468603333333,-0.010511289340333334,-0.9750476386666667,152.1354120311496,4.076331310340726,146.2268323349883
573,-2.7016043419858895,3.439482006289136,4.372634428253281,0.059972781166666676,0.012202157840666666,-0.9978708643333334,218.135691187901,4.0948504081012125,150.49292854331526
574,0.44767753158350265,3.5359307451404622,3.564122179323406,0.057494370586206905,0.0037409921451724147,-0.9927609944827587,172.79320224869784,3.9205991570947853,147.06162048119006
575,0.2650794475147304,3.129914094871209,3.141107996402477,0.05738955576666666,0.0059842734353333345,-0.9830972729999999,175.16380331142327,4.243030858474481,148.95058538961467
576,-0.2900009134565699,3.632497916859862,3.6440401941259135,0.0684029164,-0.0037327415490000003,-0.9923774976666668,184.55848168352622,4.165019360450483,143.01416827309242
577,2.982307330708653,4.946635130098036,5.774187639157597,0.07902399790000002,-0.027888485756666668,-0.9834534273333334,148.95453278981265,4.11776571085756,137.6622790810098
578,2.3937655363681354,3.9355440845017577,4.605388703471967,0.0687145971724138,-0.04712028455172414,-0.9809986627586208,148.71548992851683,4.062308278454663,146.1672284614734
579,1.7577274218312646,3.794925754355913,4.181691953966647,0.06830366123333334,-0.045972242833333336,-0.991153072,155.17256877591475,4.116308399306013,140.9129807674939
580,2.6170997781359002,3.5832523584573375,4.436211853347261,0.06021334113793104,-0.04122225879310346,-0.9771853568965518,143.8733524278306,4.158026438665686,150.69341426711338
581,2.373021867245422,3.902366679358509,4.566288131619417,0.07310871126666667,-0.038781684766666664,-0.988594892,148.72111223638078,4.123632296700629,138.5487615086261
582,1.8700780630436644,4.372545769142899,4.7549506935206285,0.06647330889999999,-0.032293371833333334,-0.9968622106666667,156.87716087810819,3.919227514100613,135.81123035480394
583,2.5886303782763864,3.7947409694458787,4.592522624054191,0.07343545824137931,-0.0390797278275862,-0.9864328575862069,145.72053382570886,4.554723871146499,152.83501494266807
584,1.89345031975504,4.497049043159113,4.878651313283297,0.07342470559259259,-0.03387124359259259,-0.9792434474074073,157.20147917814288,4.226243003931383,149.17013102031342
585,1.5435016986684775,3.838212533843998,4.136509152902635,0.07499777293333333,-0.036743530633333334,-0.9766413589999999,158.11781973599253,4.149006052743888,147.69981742294226
586,3.4842266395254997,4.521627516894773,5.706113559228274,0.08016154726666666,-0.0503387314,-0.9911706033333333,142.40667558004674,4.162092426565167,162.37754001541396
587,2.3768404606119637,5.038348812458867,5.569538447669283,0.07824902506896554,-0.04591828396551723,-0.9880220496551725,154.78878486412864,4.182874705961818,150.83890311997382
588,3.4595616809235974,4.012141050706673,5.295872828877759,0.07548759758620688,-0.05260450365517241,-0.9863357541379313,139.2415853367355,4.731412690780591,151.14025890902266
589,3.4181587538117877,4.7022814569359275,5.811110903548945,0.08037131276666667,-0.04825604463333333,-0.988754119,144.0149534024228,4.77911976542379,141.62011968492462
590,1.0364596730636704,4.867251921904409,4.9761234455006935,0.08741766873333333,-0.022863274134833335,-1.0006509856666665,168.00549910025575,4.501460901227649,144.3752953494779
591,1.4790610198907945,5.709742469492916,5.8975871149858445,0.09042544599999999,-0.03332775655172413,-0.9646195772413793,165.52022979208388,4.613370378361776,146.64677682840755
592,2.0784978237090788,4.6423839451888576,5.085511080274723,0.09237711453333335,-0.035818520833333325,-0.9749506106666667,155.91831942499653,4.6952299235165125,151.2050007205611
593,2.458479591704241,5.904755588019231,6.394438583578887,0.10745714743333333,-0.034946221400000005,-0.9867153756666668,157.45492214398945,4.467259847424431,151.21289722360825
594,2.2413578319173664,7.212009371165226,7.550510011176094,0.10679091062068967,-0.03636912555172414,-0.9848803482758621,162.8133694242864,3.7323912794362624,153.75044188429803
595,2.509094136013307,5.356781370178592,5.913738562519307,0.10452732203333333,-0.03935984496666666,-0.9826622146666667,154.9519486697099,3.0079351331965487,152.42703416473572
596,1.5824621958848326,5.953291818203544,6.159289834247381,0.10561826839999999,-0.0293984251,-0.9836782093333334,165.16189189220506,3.2776463901628823,174.32200315186978
597,1.4350387825328708,6.2362783313961865,6.398622093511111,0.11399572506896553,-0.025027841551724137,-0.9862918586206896,167.08805918069223,3.728169102604328,162.07593523569108
598,0.31705134097463356,6.94126950327902,6.948471170519099,0.11206180500000001,-0.01783383165,-0.9840004303333334,177.39752274585348,4.401526245134575,162.30083318302385
599,2.5654619024532126,6.17337405436501,6.68331130354334,0.10105362560000002,-0.03455435046666667,-0.9720376953333333,157.49888654527817,4.620683505039064,157.2792731767634
600,2.6923282495270824,4.649659318378156,5.37140964678216,0.08927623726666666,-0.03999323596666667,-0.9776501383333335,149.96385526766306,4.306948713026524,153.85249622461743
601,2.6130742858361087,5.331090465891801,5.935399228479584,0.09488305444827586,-0.041479310241379304,-0.9918714510344828,153.9376036949128,3.8806834143688835,157.5317043672867
602,2.1201987988754443,5.584149600509019,5.971911440115738,0.09617912096666668,-0.038658612633333346,-0.9954729253333334,159.2607533323529,3.812631034073453,169.38034472384487
603,2.0349601528881553,5.613256495606413,5.969627539185996,0.09825114975862066,-0.03563840941379311,-0.9750157665517241,160.12411499387807,3.7665763518615316,164.00306561335938
604,2.4884265626307385,5.874709479293338,6.378303886317293,0.09434166851724139,-0.04174846448275862,-0.9792971668965517,157.10259863347568,4.321921009648751,154.1854800173029
605,2.5055136210798623,5.221442771232833,5.789963121309683,0.09680995483333331,-0.044801319066666664,-0.9943462090000001,154.4136435327439,4.30864855311905,156.96043195744042
606,3.3747617313697833,5.225570175793398,6.218038067365192,0.08519381146666666,-0.04926158446666666,-0.9822671310000001,147.1872466539879,4.747174270334728,148.9562908951952
607,2.971243552820724,3.3174546053508482,4.452406519567494,0.06205768662068966,-0.04651369362068966,-0.9873636779310345,138.1574215322822,4.802860544393755,149.30058653292224
608,2.049754475827979,3.0526596298881596,3.676444969749886,0.0591750268,-0.042571012433333326,-0.9854765996666666,146.13380664838232,4.313044238742759,147.79919049420565
609,2.414170494804881,4.036624518793681,4.7024365478374905,0.06532813953333333,-0.03857501626666667,-0.9931038089999998,149.14462118879746,4.459379905461407,153.94702421890145
610,2.774025153947641,4.209763553798137,5.040185526271503,0.061879424499999995,-0.040212308133333326,-0.9731176539999999,146.64394611340077,4.079759682671134,151.0018950242262
611,1.9523102221066688,3.006440286926204,3.5842292555575774,0.06605733120689655,-0.044479922,-0.9915915624137931,147.01517407289504,4.2089442768305405,152.55208979397378
612,2.5688272174234097,4.067568706868231,4.809667066773024,0.07348795643333332,-0.03991655536666667,-0.9932805273333333,147.75216428913185,4.154312180973915,159.22906079905857
613,2.6686895243936855,5.60347895311563,6.204688239802373,0.09524598983333332,-0.037300377899999994,-0.9823417960000002,154.58853954348183,3.9640319008052134,164.11737462223402
614,1.8115303720044391,4.9119764148941485,5.234607001465885,0.08676283810344826,-0.04294844831034483,-0.9888327944827585,159.79550933407225,3.859784016905069,165.51785644125596
615,2.69104964083695,5.403894356845922,6.035091846558098,0.09400615526666667,-0.03311624171666667,-0.9859297329999998,153.57853580304175,3.522253842126006,151.59912902481597
616,0.894440560892707,5.53471774224622,5.60630309314407,0.09311648553333332,-0.019623595100000002,-0.983257457,170.84741250329665,3.9840421590661745,157.293532241219
617,0.6284580743741716,5.359541761671861,5.396155556867797,0.08672276556666668,-0.011021806222,-0.9840091833333332,173.33113405435446,3.6834336126994467,156.5929467616954
618,0.6290165104738583,4.207771749202643,4.254443945725258,0.082486836,-0.009159127895172411,-0.9836026679310346,171.51258979034492,3.8107562095056426,165.84525457175116
619,1.2435555591156062,4.75731057597027,4.916795587468547,0.0853957364642857,-0.020878731410714287,-0.9777718210714286,165.38077434443326,3.7946219033470467,176.19034835476273
620,1.3555799646172957,5.0394861628536525,5.218167929051623,0.07696554825,-0.019023873791666666,-0.9817326416666665,164.97869561959314,3.5547806016140795,167.32386384909023
621,1.3612363755707229,3.5381045289768753,3.7906189684728795,0.06737283591428571,-0.02362655017142857,-0.9861726237142857,158.977273244555,3.20301212781127,173.36150184855435
622,2.387587243000149,4.503083546051934,5.095742406136795,0.08156550102380952,-0.03919798561904762,-0.9915568723809522,152.1020936922499,2.903729570028676,167.78408447459492
623,2.990665286981245,5.758825141461285,6.486755842262242,0.1018974496875,-0.0426150903125,-0.977509826875,152.614070550866,2.8327218017574376,166.6270644314152
624,2.217425138153841,6.274700418115359,6.653507712431341,0.10309669866666665,-0.039963333899999995,-0.982874617,160.6001158622481,3.1273597283702874,174.93019856323002
625,2.310899684634187,6.130184145093829,6.5497343546496305,0.1037264035666667,-0.03755024506666666,-0.9856006056666667,159.407047487392,3.6848571123878378,171.64594005093028
626,2.4698344338668545,5.079628995233203,5.646832778418866,0.08695594006666665,-0.0414998691,-0.986994373,154.11504621559658,4.107551919207007,166.86013654982608
627,2.494106072138762,4.387390934942206,5.045552461073929,0.08059826975862068,-0.04078745827586207,-0.9823398493103448,150.41562309077398,4.97002322130433,165.75015548545215
628,2.7301555830337487,4.678060361671151,5.414926162930137,0.08401680816666666,-0.04685987029999999,-0.9818735953333333,149.76841383974602,4.87910416047478,159.5581008771412
629,2.9253581229623298,4.893121555236687,5.699082396878583,0.08519549519999998,-0.0473018544,-0.989322452,149.16635835259203,4.281363445648132,161.8088231141128
630,2.9373232564372738,5.416185607141489,6.159319374869662,0.09298764359999998,-0.04937735263333334,-0.9895657966666668,151.57858728667196,4.786470012459227,154.15546628161823
631,2.8830643026810048,5.4268846284138474,6.143147465555247,0.0964045730689655,-0.046531914862068965,-0.9817364755172413,152.0713236929604,5.2882460460514515,162.0699526561329
632,2.718184278151466,7.050572574353339,7.553923617520323,0.12709829183333332,-0.04399968709999999,-0.9897962946666667,158.9998603249697,5.096281970631491,154.04150269099136
633,2.321890830281841,6.74919643093184,7.135675720686509,0.10835723363333331,-0.042033835300000016,-0.982285549,161.0875312514938,5.22002938693963,156.938775213739
634,2.051923163360891,6.795115466210212,7.09677550363689,0.12518865307142854,-0.034899166499999995,-0.9738287446428571,163.26492482827805,5.669173032376564,158.5767877212736
635,2.3743937716741566,6.826101381023434,7.225420662791817,0.10812090016666667,-0.03268198413333333,-0.9786017616666667,160.89435366604147,5.474495059915406,158.26195544182968
636,2.0677699168252457,6.062712860655992,6.404388229444619,0.11033837899999997,-0.03880472263333334,-0.9790431116666666,161.2251924135291,5.244732316040721,154.07536153853945
637,2.3662462713978027,5.971645283616173,6.421789292856974,0.10475997548275862,-0.039850176448275855,-0.9825204679310345,158.44420848021835,5.6418124052970064,168.6431788193366
638,2.520721168541887,5.50974297287441,6.057367598795384,0.0909447119,-0.04033115166666667,-0.9853608969999997,155.4687130884165,5.184448020648282,168.62168760984432
639,2.469040821620082,5.541948938194242,6.06550368494631,0.11095194353333332,-0.04677785296666666,-0.9795491203333334,156.03947628180148,4.880568669624416,164.70207885314287
640,3.7257960390982636,6.444658545586958,7.440199692229364,0.10247944724137933,-0.05290745127586207,-0.9761855827586208,150.03680034035958,4.6544204893828045,149.73338551440307
641,2.9945189787692597,6.082752409299991,6.77741103521535,0.09878133849999998,-0.05327415486111112,-0.9884297602777777,153.8539092629759,5.6675743709899855,167.58220152392963
642,2.991637693413202,4.855822693770404,5.701532091241955,0.09707760041666667,-0.04852649554166668,-0.9869292995833332,148.40115733712435,5.039800113232801,159.46860498519527
643,2.67564759780722,6.271597949415798,6.816407535050413,0.10276028268965516,-0.04806250713793104,-0.9889604479310343,156.96319005347806,4.132964145278629,158.5748664487599
644,2.518923377493107,5.855695169264932,6.372756970581539,0.10150997083333331,-0.04011123306666667,-0.9842013283333333,156.78337521295413,4.596344700264261,164.73761302608014
645,0.897033910232474,6.156121617337536,6.2208845276661116,0.10980272810344827,-0.024627397017241374,-0.98556208,171.74036310627565,4.756877784208527,145.33226209603677
646,2.237389175591237,6.326145132123528,6.708625931183377,0.09409394288888889,-0.037684605740740736,-0.9845484292592594,160.58681981963244,5.435546547505954,152.7990563429982
647,4.5298292226002,4.891773460287515,6.663249803735469,0.0932539910666667,-0.04829922413333334,-0.9707700686666668,137.2099383610683,5.3984571816032965,156.8144407314676
648,1.9744360491799688,5.771274566426788,6.098591098120191,0.10334586989655173,-0.04818729875862069,-0.9870038493103447,161.16592277073784,5.928700373923772,155.9591645677821
649,2.22812328369903,5.532413614396847,5.962943358344532,0.09429571343333336,-0.04608495680000001,-0.9856645633333334,158.1151704798845,6.179655751210301,164.60274921125907
650,2.8016807882706654,5.5804466322704265,6.242272006088548,0.09696329672413796,-0.04285935555172413,-0.9788603765517243,153.39536526033012,5.35570466078868,152.59634470781342
651,2.4746639653210525,5.7089578379647,6.220601164974498,0.10055299186666665,-0.042061917866666666,-0.9837480683333335,156.62099156514768,4.917245201712504,153.92049465293016
652,2.5293215947954626,6.079148716751297,6.582513904043546,0.1052996593448276,-0.042766711034482756,-0.9891030196551726,157.47268946927602,4.961419563000254,154.48239851313434
653,2.7250190005944006,6.288851884719914,6.85168136961683,0.10624545836666668,-0.04237365336666666,-0.976299761,156.6407905211573,4.704964654051569,152.8054114307637
654,2.511421465946277,6.116997806984132,6.610666774885906,0.1050073893,-0.044346442,-0.9828681403333334,157.74240953897328,4.6135806864994215,154.25968714711857
655,2.7426717749935405,5.506510222038154,6.149855748289545,0.0944478584,-0.0424056021,-0.9801701199999999,153.57615261523858,4.621209541819106,154.47193697168592
656,2.2998872700342696,5.310299082028666,5.785637558489383,0.09512179364285714,-0.03940597889285714,-0.9827977517857144,156.63127795732282,4.973175227376485,153.90704571894256
657,2.1630378706641533,5.28592883190804,5.710209590804846,0.089710609,-0.03644508400000001,-0.993384931,157.7927965612461,4.7837495848001,153.1264576411337
658,2.1511985039665666,4.820948778244025,5.2780938809598466,0.08333845233333333,-0.0356857473,-0.9808928036666668,155.99302012407048,4.494558214535035,153.6344795405743
659,2.0361960145120106,4.445659138569124,4.888931880276119,0.07740804379310343,-0.03282392410344828,-0.9869257696551723,155.42576420751237,4.10429624797987,154.56812416195584
660,2.0316934357228336,4.066649398461414,4.545160195188433,0.07326513707142858,-0.036992965571428574,-0.9884416099999999,153.4822349631201,4.150001773554553,155.81549767814278
661,2.3262351973374806,3.8705704886542067,4.514914281540559,0.06842925696666667,-0.03316097983333333,-0.9849111003333333,149.01850212989518,4.021496921232536,153.88877959902135
662,1.89928938084291,4.311507888217784,4.710582606915754,0.07520962303571428,-0.03383597264285714,-0.9893864367857141,156.2579178344891,3.762044722504678,157.83421040981938
663,2.001666113923956,4.384112980001381,4.818639916111648,0.07417255143333333,-0.03371297756666666,-0.9812569853333332,155.49333603959371,3.399053075930311,163.82870882069938
664,2.449614097980917,4.028021876748272,4.7133511635836,0.07232045241379312,-0.03826599293103448,-0.9845888486206896,148.72085189188695,3.117345534403896,154.98197702913467
665,2.230021992025915,4.196087550098701,4.750921377478913,0.07423566406666667,-0.040479217666666664,-0.9835903933333333,152.04196744565093,3.133958787138843,148.71734631836034
666,2.4728891323239677,4.8300005586153345,5.424904770713758,0.08225936439999999,-0.03841812283333333,-0.9868291790000001,152.92891086499986,3.090996603952414,148.89256530277447
667,2.2013547709232375,4.79799535797243,5.277820420646042,0.0781092697586207,-0.037452269965517246,-0.9894154017241379,155.39413430387788,3.049564469195356,148.18514640535403
668,2.0496714549035753,4.080402929725516,4.565494024251545,0.07410550503333331,-0.0332277451,-0.9841181676666666,153.35774941082948,2.863365451913691,152.5686868969603
669,1.911316836260317,3.971042390097137,4.406411017028641,0.06670473933333333,-0.034373775,-0.9962095099999999,154.32542704676115,3.4304775303510655,152.09251200975845
670,3.6256980381872146,2.403134104364603,4.3489111596322525,0.048502561,-0.06714543965517242,-0.9928120934482758,123.51688243537438,4.458190879669018,104.98429998919254
671,3.085073799679219,3.1618893962777084,4.4165098524618855,0.03232374566666667,-0.0518385072,-0.9887786273333333,135.70589772111214,4.168495229737035,99.05788812861766
672,3.172484754642421,1.19156298642567,3.3886620565318237,0.02932836642068965,-0.06775493965517242,-0.9849194793103448,110.56926304678854,3.8114340344095456,113.86892189228978
673,5.501315952082153,1.1976498254182555,5.629780779370805,0.028667874723333334,-0.08413379573333336,-0.9980418610000001,102.24689970914669,3.759120270644784,110.84052343448435
674,5.251367371666583,2.0373517561113768,5.6316987818688915,0.0349584643,-0.08309379323333334,-0.989355853,111.15853691703377,4.440615768807412,115.50004711715802
675,3.777227075082334,2.157713487193775,4.349301611300558,0.04505545793103449,-0.07568558848275862,-0.9833379689655172,119.7127430099427,5.0144427199570485,109.46605297896663
676,4.033205376160346,2.880707437846681,4.954947772122477,0.04304896323333332,-0.07621528979999999,-0.9842538203333334,125.51427248533832,3.877112172985347,112.83588732206861
677,5.018068122535172,1.8955630316164087,5.363298828229464,0.03608696206896552,-0.07252977489655171,-0.9840612855172413,110.65236709672676,4.194316108442849,112.03850402718618
678,3.8563657457836147,2.8597848798961163,4.799746955480677,0.049958424275862064,-0.07127499406896552,-0.9871143210344829,126.54105223612544,4.184388251060055,111.82046180889274
679,3.67196443604496,2.5779938040120456,4.485562633954942,0.033021496409666666,-0.06919345496666668,-0.9855395166666666,125.05299605270777,3.668537808249351,108.04518762760395
680,5.331636990272458,2.4556202035997603,5.868475634804176,0.057792889433333335,-0.07988637083333333,-0.9727733526666665,114.68003521879992,3.458309300878805,111.18629438245613
681,3.7561643732533874,3.8557948039718606,5.380949104419519,0.055184091172413796,-0.06653285879310346,-0.9889283720689654,135.75209263690536,3.755118849187104,105.05239233272778
682,3.1058329790667583,2.2748887573536662,3.8491878325020386,0.03993336043333333,-0.06395480426666668,-0.9852033046666667,126.2087565819129,3.886185677270703,122.17281452399874
683,4.490029349436777,1.7406904491534012,4.814993381082447,0.020731989800357144,-0.07644068253571427,-0.983227840357143,111.15664803299858,3.4299201531034864,104.11768455087244
684,3.824400779836963,-0.016918732896867954,3.824438147376569,0.02088783615689655,-0.06674951006896551,-0.9879842296551723,269.7469078894537,3.152660150469738,99.54304788000853
685,3.722247477140033,2.616952119507927,4.54905770298482,0.03702735620689655,-0.058814263310344825,-0.983564808275862,125.0901987818196,4.00650952694804,102.06949670962926
