index,mav_roll,mav_pitch,mav_tilt,mav_acc_x,mav_acc_y,mav_acc_z
0,2.171723483446362,5.056454332673592,5.501987045814282,0.09061839993333333,-0.03685858696666666,-0.9862963350000002
1,2.062102244605191,5.418119805351716,5.796171507639927,0.09568774313333334,-0.033277285766666664,-0.9829027076666667
2,1.8188128673143875,5.834556991234239,6.110539430944972,0.09831506513333334,-0.036174244700000004,-0.9876473850000002
3,2.42710028547079,5.414266979645264,5.931909969652759,0.09398311103448277,-0.03962283696551724,-0.9841850937931034
4,2.285226687085946,5.380640905749477,5.844501268859366,0.09239072813333334,-0.0403073822,-0.9853583223333331
5,2.3601537936006007,4.756238264039592,5.308420292009148,0.0873517074,-0.03650313176666666,-0.9921496873333333
6,1.0696939751223924,5.996525229595973,6.090843869095068,0.1015016887586207,-0.017314658479310345,-0.9786307186206894
7,0.4780749670850498,5.541824171073995,5.56234281838935,0.09475139629629628,-0.013989980908518518,-0.9876452600000001
8,1.5641619709472152,5.074341770681723,5.30934522392521,0.09191946241379309,-0.02485998069310344,-0.9870718644827585
9,1.4199882075451553,5.469941899798612,5.650708012483919,0.0983680927,-0.02741608331666667,-0.9859642256666667
10,1.664499777979461,5.786690798499159,6.020541731176513,0.09895822051724142,-0.03259040006896551,-0.9781550020689654
11,2.2262355435565135,6.205593576971903,6.591367060644366,0.11089113589999999,-0.03411963606666666,-0.9841079626666668
12,2.1073136660516565,6.712805343122244,7.034357620052088,0.11022443382758622,-0.0348654888275862,-0.9871647727586208
13,2.0668884213881564,6.0531771112662565,6.395081987837825,0.10683075190000002,-0.038245029300000004,-0.9842332289999999
14,2.286502282820904,6.137820613812932,6.548352333626413,0.10677006500000001,-0.036893786233333344,-0.9808979906666668
15,2.1704996208746525,5.856292756680336,6.244262535476342,0.10148984053333333,-0.03561508896666666,-0.9830086913333332
16,2.0355244970771897,5.1220480541873625,5.510688873973712,0.0869589535172414,-0.038273244379310345,-0.9868427237931034
17,2.228095640948238,4.385749838877603,4.918283354202776,0.07904871006896552,-0.03561286265517241,-0.9861425913793103
18,1.5740568965896895,4.54884299157777,4.812942920935789,0.08112484970000002,-0.0314642941,-0.9845116600000001
19,1.880417405195653,4.715140622465131,5.075483638892206,0.0820978295862069,-0.03537303351724138,-0.9862532237931034
20,2.3578817724340895,4.96426002466208,5.4945030353158355,0.09078155353333334,-0.02316499328533333,-0.9849696233333334
21,0.043792359809825335,5.829961632268866,5.830125537362038,0.09860620465517242,-0.02462506977586207,-0.9905616927586207
22,2.1776017170927426,5.529371387581491,5.941478390170203,0.09752589403333332,-0.03747877406666667,-0.981529795
23,2.816803720727442,6.278849353205209,6.87942874908068,0.10174112099999999,-0.030761429310344823,-0.9846741910344827
24,1.4770605397379062,5.407150956211505,5.60468627738182,0.095735605,-0.031908157933333334,-0.9844509680000001
25,1.3952013652413529,5.329509148554823,5.508596648108718,0.095978765,-0.02504013726666667,-0.9873517623333333
26,1.3096472635738001,5.688195125935161,5.836531579621042,0.10144490146666668,-0.023750802666666668,-0.9849754156666666
27,1.3264991134565423,6.148641912010604,6.2895657347391145,0.10172441937931034,-0.024647532206896552,-0.9830712962068966
28,1.3538866769415643,5.610035287887806,5.770584317995527,0.09847711776666662,-0.022502696299999996,-0.9873766246666664
29,1.1399465127813946,5.288034854019592,5.409168029854905,0.09455828509999999,-0.0247636776,-0.985644062
30,1.8276435992960838,5.320931447742992,5.625209663244565,0.09280918949999999,-0.022009667125000004,-0.9839185404166666
31,0.5452810597442463,5.309554836943754,5.337401276684656,0.09140449748275863,-0.010001746462068965,-0.9847246406896553
32,-0.5108325901194082,4.878251880968792,4.9048609044122795,0.0871492344,0.003067646175714286,-0.9895601985714287
33,-0.17735827558588296,4.548789963970603,4.552239007078224,0.0782271516,0.0041489875666666665,-0.9884721813333334
34,1.038029918119798,4.588631131906756,4.704331735072683,0.06942090144827587,-0.009260550003448276,-0.9861961799999999
35,0.18023951174257322,4.1502296851175045,4.154134793669316,0.0769241868,-0.02098650048,-0.987124929
36,2.7557632492556396,3.6891363170870113,4.60363538014034,0.07382720563333334,-0.027031074733333334,-0.9881505176666666
37,1.6834284597626483,4.461294068649806,4.767740164072228,0.07426239396666666,-0.028615107266666665,-0.9830584256666666
38,0.32694116860282374,4.745803451727931,4.757026000195349,0.07690017871428574,-0.019920033017857147,-0.9878716357142857
39,0.6418422790685372,4.312842766513881,4.360251812869043,0.0778169344827586,-0.007046609589655173,-0.9888734868965515
40,0.312435306092993,3.9130060681546044,3.925440165931781,0.06855273903333334,0.00234397434,-0.9850283336666666
41,-0.8012174645908038,3.377186377466073,3.4708203114625285,0.05797071,-0.00030868596166666666,-0.9877339441666667
42,0.039144810433239606,3.0829792102562554,3.0832274726209397,0.05613453827586207,0.0006507523262068964,-0.9877138393103447
43,0.4497075030956026,3.065094904514436,3.097878411506931,0.05482190988888888,-0.0051880654825,-0.9877825661111113
44,0.5220624199003343,3.3395246449114575,3.380039247679519,0.06271015153333333,-0.01729887526666667,-0.9887887059999998
45,1.9165161157504973,4.375363061118393,4.775949415533436,0.06888717146666666,-0.03138931143333333,-0.9866901906666666
46,2.2936176987685366,4.48210849793493,5.033809909768629,0.07184996620000002,-0.035116344666666674,-0.986024252
47,1.901218426751921,3.9769017222831238,4.407331587746377,0.07597759032142858,-0.03309062142857143,-0.986964139642857
48,1.8697872520396994,4.274858920709853,4.665193782562624,0.07237381824137931,-0.03125405020689655,-0.9853172348275863
49,1.4745641659033377,4.177768474659735,4.429924821271083,0.07222727203333333,-0.030243035733333333,-0.9863903566666666
50,1.7383217089112548,4.082219528192567,4.43634573373792,0.07196420816666668,-0.027139684933333342,-0.9890048326666666
51,1.5035849766374663,4.391748632999589,4.641529310463235,0.07517378913793105,-0.02839071493103448,-0.9842729082758621
52,1.6869312599404875,4.235855551686534,4.558840049556389,0.0724165784,-0.029033298733333334,-0.9876065083333335
53,1.9601379091377338,4.516415079118872,4.922619632388908,0.0836323662413793,-0.03407933255172414,-0.9850911706896552
54,1.9003420436334628,5.363584611983062,5.689357075198298,0.08821219426666667,-0.033334425333333334,-0.9852198736666666
55,2.2566101907238596,5.578360950792064,6.01616975100145,0.10092052006666667,-0.043190135666666664,-0.9830844576666667
56,2.869931700110135,6.444371391543556,7.052067982931046,0.10624228887499998,-0.04908635758333333,-0.9811651675
57,3.025586424335278,5.363212224438382,6.155604081123531,0.08904086805714284,-0.04761076457142857,-0.9858670277142857
58,2.4742139021027016,4.065720559112055,4.758312552028811,0.07683746309999999,-0.042957079766666656,-0.9886612219999998
59,2.391009444948791,4.30992934339382,4.927639279695076,0.07671523643333332,-0.04277081043333333,-0.9868471056666668
60,2.324019347197187,4.540290550503693,5.099411042737189,0.0785223594285714,-0.03864805331428572,-0.9855077877142857
61,1.856437647067852,4.555319020072016,4.918335790802198,0.07772927154166666,-0.03719544833333333,-0.9834651045833334
62,2.2116866274042626,4.756588727549084,5.244563873498284,0.08080685603333333,-0.03798585200000001,-0.9871781616666665
63,2.708698367631425,4.2267273170074215,5.018859860630234,0.07383011913793104,-0.04414757903448275,-0.9849815562068966
64,2.1659843721381407,5.391731655832242,5.809337364559121,0.09850819506666668,-0.03972754403333333,-0.9871410463333333
65,1.8378764934547553,6.221140059626336,6.485914597249154,0.10412146186666665,-0.03246023596666667,-0.9830409656666668
66,2.2007488781992746,6.024129288606392,6.41214219138548,0.1029281226,-0.035747150400000004,-0.9827810600000002
67,2.2974940045232817,5.9294399860026905,6.357505636296364,0.10257758424137933,-0.041012352896551724,-0.984461224137931
68,2.2754485530868735,6.108241571423014,6.516797430545896,0.10492500236666667,-0.039792991066666665,-0.9845436870000001
69,2.418768078713806,5.632933582270985,6.128745078976583,0.09582294549999999,-0.042427778166666666,-0.9840578729999999
70,2.4295812811276765,5.663431905829578,6.161013454779092,0.10370385720689657,-0.03805048493103449,-0.9830483503448275
71,1.8717886842556801,6.38571013934609,6.653297468871666,0.10742678013333332,-0.0334381788,-0.9831241606666665
72,2.646681386746876,5.269258802051498,5.8949341096185055,0.08872238116666666,-0.04190953740000001,-0.9806369353333332
73,2.45704968287484,5.273817290207391,5.816629671445113,0.09706177431034481,-0.04150412382758621,-0.9854689027586205
74,1.9680781260907403,5.844478231947057,6.165858642421728,0.09915190479310344,-0.03616154320689655,-0.9857114624137933
75,2.367892489514618,5.682578422438453,6.154690395177104,0.09626628409999999,-0.04227513166666667,-0.9865256016666668
76,2.627327490088218,4.934803300669361,5.589101338708175,0.08020053563333335,-0.03831395173333333,-0.9837300593333335
77,2.042787078747498,4.454989050404474,4.900152327319159,0.08282333431034482,-0.03606366331034483,-0.9840642810344827
78,1.6492870691880415,5.366507545333964,5.613518641492437,0.09787959789999999,-0.03511387136666667,-0.9862616709999998
79,2.8884761364602713,5.796677502729685,6.474277875894223,0.09517475293103449,-0.03612512496551724,-0.9861465103448278
80,-0.02141922425784896,5.906021621573183,5.90606032407298,0.10177367866666667,-0.012652226866666668,-0.9825102593333334
81,0.7952315201874527,6.570029734843502,6.617772258176479,0.11440126403333334,-0.01296067881,-0.9842827306666666
82,1.404839615738426,6.943246190786912,7.08325993991838,0.1210825816551724,-0.02616691913793104,-0.9729068172413793
83,1.8930333103367591,7.4991712040934635,7.73308836292504,0.1267334625333333,-0.028096113733333337,-0.988368482
84,1.6571510610901847,7.367938866850473,7.550994496360645,0.12505876586206893,-0.030554375379310342,-0.9804331427586206
85,1.826532260076874,7.0097402567938625,7.242652517660975,0.11954139768965519,-0.031085171310344828,-0.9735821303448275
86,1.9851454678854226,6.374923454123788,6.675640423104601,0.10909154443333333,-0.03405396696666666,-0.9873849206666667
87,1.8586174160163873,6.078929036488194,6.355695431313627,0.1102659789,-0.03397059203333334,-0.9839080736666665
88,1.8754350133105537,6.226201929080757,6.5014606313275465,0.10789131296551722,-0.033686859310344826,-0.9945973158620689
89,1.98252820794401,6.39140939727975,6.690606431108835,0.11120963383333332,-0.03226560333333333,-0.986524689
90,1.8994655660531508,6.496552106444535,6.7673984982199995,0.11457200278571429,-0.03599944153571428,-0.9828753425
91,1.92713154018784,6.634792316124035,6.9077991312300915,0.11071604956666667,-0.0342109304,-0.9812098413333334
92,1.926799765849738,6.5372521481350505,6.8141101925920715,0.1152156215862069,-0.03394626593103448,-0.9825918531034482
93,2.0077795104244784,6.912477641206461,7.196801144650958,0.11764672779999999,-0.03314163826666667,-0.9754051206666667
94,1.9238006063575577,6.295186580661676,6.58144947049135,0.10542810739999998,-0.03467629237142857,-0.9795898060000001
95,1.793994979218677,5.456973300715655,5.74345171213471,0.09711351634782611,-0.031879776608695655,-0.9872273495652174
96,1.7120017102830953,5.775652751526195,6.023220039680963,0.1012309910689655,-0.025679993137931033,-0.9829924437931032
97,1.0720880118469334,5.700665443699328,5.800272746933331,0.09619635927586206,-0.026841257758620687,-0.985458878275862
98,1.9002852775013637,5.058801957505742,5.40307063431632,0.08970601233333332,-0.029864929999999998,-0.9857908076666667
99,1.7449570973303732,4.734259644585072,5.044913922580517,0.08074220989999999,-0.029791636199999992,-0.9849638273333333
100,2.0634672584194274,4.774512708560445,5.200385334802342,0.082065719,-0.037804913291666666,-0.98506135
101,2.529205236278511,4.997975217802992,5.600035702743388,0.09516626531034483,-0.03984105848275861,-0.9807451234482759
102,1.902410560064444,5.957924907725379,6.253237572434504,0.09812284711111113,-0.03157928308333334,-0.9903465286111113
103,1.1677821283235963,5.52503521117005,5.646724669505423,0.0946226860689655,-0.022852238655172413,-0.9785677282758622
104,1.7247108822628512,5.995014754301752,6.2373043477719605,0.11093590816666668,-0.033374292466666663,-0.9799997963333335
105,2.497156363883485,6.969230504755702,7.401025332260292,0.11420239843333332,-0.037934405366666674,-0.9914059746666666
106,1.5642764292759306,7.127770785204041,7.296536184350204,0.12177639435714285,-0.03175979196428571,-0.9871587939285714
107,2.449723700806179,6.614933028755746,7.052077327391905,0.11353652568965518,-0.039566352137931034,-0.9769236489655172
108,1.8376512111637844,6.931339963723126,7.169654429238138,0.12880247770833333,-0.036718203708333334,-0.9831858704166666
109,2.388931845572284,8.151018189581446,8.491615632121889,0.13701883411764706,-0.04118476155882353,-0.9751611694117647
110,2.7626317452616296,7.809188512572063,8.280593802161178,0.12950280666666666,-0.049433116166666666,-0.9838086276666665
111,2.7410243727709007,6.184827419890184,6.762846717836474,0.1108652611,-0.04367743286666667,-0.9763246953333333
112,2.062495162128658,6.440052649224477,6.760934368571724,0.10964795737037036,-0.03624407925925926,-0.9713138877777777
113,1.7476051619160387,6.5524519318642795,6.780517906745945,0.11275608933333334,-0.03645526926666666,-0.988334128
114,2.2547258347735086,6.134158555471572,6.533930613247711,0.11120628776666668,-0.038285904733333334,-0.9869784526666668
115,2.362776914300036,6.472371280782944,6.888434872578089,0.11008742272413793,-0.04256312368965517,-0.9790238713793104
116,2.632538157154164,6.166689568834361,6.703098752429771,0.10733844963333333,-0.045275355700000006,-0.9859201443333334
117,2.7933019189493966,6.725492237770728,7.280034821447827,0.10687506371428572,-0.04584490678571428,-0.9839511114285714
118,2.3546591564272124,5.768926849333443,6.2294611191895966,0.1088716047,-0.04263934276666667,-0.9786982510000001
119,1.7745068949130252,6.380066128480197,6.621260610380915,0.11941792008333334,-0.040030792125,-0.98021329875
120,2.633197271362444,7.294021008615323,7.752352381071853,0.11581074972222222,-0.04144123255555556,-0.9792105497222222
121,2.17712584520285,5.756087687041969,6.152760681441813,0.09891211555172413,-0.033857709241379305,-0.988989992413793
122,1.894090827613095,5.314998146285747,5.64149697213792,0.09994592806896553,-0.03946761251724138,-0.9883361506896551
123,2.524353018484774,6.097050939667549,6.597144368120831,0.10961970450000003,-0.039008444399999995,-0.9789622550000001
124,2.220850874359739,6.409889788900449,6.7822024355375525,0.10615016699999999,-0.0330282515862069,-0.9844625051724138
125,1.8682909880958618,6.506672751468746,6.7684771093120375,0.11405563379999999,-0.036845505400000006,-0.9804703773333333
126,2.137891408141863,6.324757527601466,6.674919905240234,0.10680243333333334,-0.037707384866666666,-0.9840094806666665
127,2.146464638285075,6.238735589548004,6.59627982982473,0.10957797089285713,-0.03885001232142856,-0.9793777839285713
128,2.3216702471542416,6.343645070791936,6.753513180416666,0.10997553056666667,-0.039385884966666666,-0.9891309753333332
129,2.3909816336809175,6.648218328689387,7.063279524564602,0.11262758383333331,-0.039556638,-0.973858564
130,2.3685376344904348,6.537381462070667,6.951471674165175,0.11249146016666667,-0.040953494599999994,-0.9853712913333332
131,2.36987726274907,6.646620036737506,7.054690443172055,0.11398012382758621,-0.040385742068965516,-0.9859430510344829
132,2.256472319586072,6.316541860928892,6.7059467474428205,0.11058562875862067,-0.03677927410344828,-0.9918681244827586
133,1.9326966459282446,6.023821881246283,6.325185565764431,0.10375488463333332,-0.033591369066666675,-0.979870688
134,2.036367663361011,6.002235551598986,6.337068957250989,0.10422172546666668,-0.03359901066666667,-0.9833788986666667
135,1.8469463139334414,5.986649294140866,6.264084658925579,0.10803719559999998,-0.0318877726,-0.9826227790000001
136,1.629156983537135,6.506647531771803,6.7066529992806,0.10784688451724139,-0.034277444275862066,-0.9832073082758622
137,2.300319519474548,5.954435747478245,6.381826491058142,0.10611377165384615,-0.0356546698076923,-0.9810553411538462
138,1.9744845515739653,5.926974950145051,6.2460951095059265,0.09851113206666666,-0.03690852703333334,-0.9917276879999999
139,2.1191191719890266,5.097100161530754,5.518989243851996,0.0897116192413793,-0.032029080413793105,-0.9799036210344829
140,1.225899656341318,5.583151663061177,5.715737278836502,0.10331171059999998,-0.0232920011,-0.9829223416666667
141,1.0874806487873279,6.3667556038934885,6.4585849359569405,0.1068159724827586,-0.02174058265517241,-0.9838868727586207
142,1.208385451177224,6.236088337501595,6.351631483137678,0.107915589,-0.019905267166666667,-0.9838881744444444
143,1.0878087555968408,6.308199460995143,6.4009314172088345,0.10849986416666671,-0.019059732856666664,-0.985824209
144,1.3057009366817807,5.970936154837637,6.111526576991547,0.10495113720689654,-0.023740308827586206,-0.9901901627586207
145,1.3180537611063803,6.123814055350534,6.263524871355441,0.10609419013333331,-0.01893154123333334,-0.9757478116666667
146,0.9888867456110565,6.444714602596243,6.519824813184959,0.11352056299999998,-0.0181633867,-0.986787022
147,1.3525678411901068,6.54918320796749,6.6867978616664585,0.11298995816666668,-0.02678908833333333,-0.9843207160000002
148,2.068923138181242,6.451294416667272,6.773591120633836,0.10777904803448277,-0.030214122,-0.9801619693103448
149,1.8196456856881387,5.806244078519424,6.083768389237417,0.10125606195833335,-0.03139416375,-0.980692625
150,1.5091490486676216,5.633939569367908,5.831934533847374,0.09594714327777777,-0.02877468838888889,-0.9806555641666667
151,1.5500981555590936,5.055184594220042,5.286913767309437,0.09097363923333332,-0.029431615000000005,-0.985738111
152,2.0469303424868954,5.306851625239022,5.686880389069607,0.09154754382758622,-0.03210389824137931,-0.9831675917241381
153,1.6050602334687014,5.077208840536378,5.324238995007603,0.08467698986666665,-0.026487437699999998,-0.9856323306666668
154,1.278182751548194,4.753935980835407,4.922388395756792,0.08321729699999998,-0.02167422415,-0.9865290263333334
155,0.7798313456114813,4.519880243108022,4.586522898249241,0.0831209507142857,-0.010311720519348571,-0.9877391885714287
156,-0.8781125931093042,5.049033037741503,5.124628701093609,0.08559207958333333,0.0129197515825,-0.9860657420833334
157,-1.6972608159044442,5.3354780314423005,5.598186135939957,0.08696440303448276,0.016501823643793104,-0.9880010303448276
158,-0.4881967044178892,5.004081072504693,5.027778544464515,0.09155141293103448,0.011655886786206897,-0.9845548910344829
159,-0.789371135971478,5.317285687350686,5.375392447281909,0.08128466263333332,0.018108716575,-0.9878206843333334
160,-1.0100580547800089,4.691173718787962,4.798442175008177,0.07869728482758621,0.005347077934482759,-0.9882394720689656
161,0.3104947946249677,4.52845842442569,4.539068394621147,0.09214505775862068,-0.0034157736103448276,-0.9865580468965518
162,0.14901462293709408,5.38022265790482,5.382279805188255,0.0994810163,-0.006343157086999999,-0.9843958486666666
163,1.54468962120152,6.8116119796962815,6.983757681857738,0.10481709476666667,-0.01222732501,-0.9773965160000001
164,1.0049316439750902,6.115250014471832,6.196961563799062,0.10795914155172413,-0.015455828068965519,-0.9804262886206897
165,0.29870573258907884,6.10059588864026,6.107876707406752,0.10734378182758621,-0.00795967878965517,-0.9888214396551726
166,0.05000520355418667,6.035829493333294,6.036035862733724,0.10058909656666667,-0.0048032692863333335,-0.9779163289999999
167,0.5677737349069522,5.434003904060529,5.4634968937278945,0.09626320199999999,-0.013168054736666664,-0.993531171
168,1.1862906691046509,4.925341901719404,5.065847423119989,0.08760871756666667,-0.01577161395,-0.9856078983333334
169,0.8057294059626281,5.181989352187692,5.244086422187467,0.09038564565517242,-0.01235637602758621,-0.9851645696551725
170,0.1771426494800075,5.643881558908954,5.646651840746715,0.09662539493333333,-0.005255367016666667,-0.9844696923333334
171,-0.187518733802702,5.991371324754861,5.994294401035043,0.10271462116666669,0.001515166957333333,-0.9844772
172,-0.0891904361729006,6.428793475659502,6.429409543282213,0.11223480671428572,0.0018991714742857145,-0.984617047857143
173,-0.027668925426010352,6.6936728510208985,6.693729776425572,0.1167571673,0.0015255920356666665,-0.9943034850000002
174,-0.1522186278174537,6.515537484462817,6.517307669421015,0.1061039258,-0.0006041993963333335,-0.9771595386666668
175,-0.14178512230711718,5.9421273546733016,5.9438126143315415,0.11101624846666666,0.0010757453504,-0.976326559
176,0.1332747391582324,7.087640269585186,7.088886799325501,0.1198387005172414,0.0005205836341379311,-0.9812322013793101
177,-0.3507596474198317,6.995862821066844,7.004606835324743,0.11906339641379313,0.001287129298275862,-0.9818125099999999
178,-0.18001847990017544,6.934653461815432,6.936978224946756,0.1220867064137931,0.005552434998620691,-0.9852519168965517
179,-0.3923659203336634,7.279608324904655,7.290117907094152,0.12953145500000002,0.004256715856666667,-0.9767415876666666
180,-0.20910141486365233,8.179571080756599,8.182225187968676,0.1357735782758621,0.0022342966822413795,-0.980586838275862
181,0.2703558283009349,7.996302039852778,8.000841419308108,0.13717738266666668,-0.0054976082,-0.9800233750000001
182,0.9576408716728696,7.614336583821367,7.673968485210233,0.13113227600000002,-0.014411559695172414,-0.9759814486206897
183,0.8434951659081432,7.489009684396664,7.536092732456342,0.13147665886666665,-0.013599853020000004,-0.9802366389999999
184,0.6633702821864362,7.647697204812162,7.676243621017881,0.13135384933333336,-0.015365552200000004,-0.9855950743333335
185,1.0445868955760607,7.064321639752062,7.140746954091893,0.12200255534482761,-0.02077509455172414,-0.9837718755172413
186,1.3230379211392518,6.780074583656632,6.907362905191207,0.11828279709999999,-0.020975625066666666,-0.9859687076666667
187,1.5810552683531154,6.737484796882894,6.919675140889686,0.1163172602413793,-0.029531875413793103,-0.9800010003448276
188,2.073813738807549,6.36214010911255,6.690279388034891,0.1114812627586207,-0.03179657210344827,-0.9805721348275862
189,1.7219236987299646,6.2485608718532974,6.48056858556692,0.10745361351724138,-0.03120951737931034,-0.985013315862069
190,1.4533354762877868,6.0755811891578935,6.246354766835419,0.10551868206666667,-0.0266112414,-0.9864720456666666
191,1.4147397086546036,5.742865417034087,5.9139905535648225,0.09840181580000001,-0.027163424566666667,-0.9861556979999999
192,1.57776718184714,5.363668855876911,5.5902608556956155,0.0964702179,-0.026791881699999995,-0.9846832176666669
193,1.4172784306311867,5.610717976206774,5.786398647964532,0.097581974,-0.027959460034482755,-0.9830524700000001
194,1.5977344237674773,5.381599647680549,5.613097029826684,0.09249002216666666,-0.024565884866666665,-0.9853834413333333
195,1.1288784199659008,5.247156201721383,5.366884565085692,0.09227884446666665,-0.02025333898333333,-0.9841086736666665
196,1.0039921115356674,5.184335428627725,5.2803959608184545,0.09016102410344827,-0.02272707703448276,-0.9857802372413794
197,1.5219914044845217,5.279130322017084,5.49355218607332,0.0909948171,-0.02212033838333333,-0.9836736073333335
198,1.3403129991175369,4.835159681130163,5.017065018662684,0.08160658266666666,-0.0267925709,-0.9862782590000001
199,1.7337753360257437,4.3573289610795465,4.688975892101729,0.07592242000000002,-0.02630495451724138,-0.9870570120689655
200,1.8060838139321835,4.040521068685985,4.425193753218066,0.06827383846666667,-0.033092429033333336,-0.9881644476666666
201,1.5676249280707788,3.6619412111254497,3.9829529444743716,0.07004328156666667,-0.026585670566666664,-0.9854742766666668
202,1.681010047041574,4.066831493804035,4.400018836501918,0.07036947086206898,-0.030202103,-0.9838072517241381
203,1.3625255383157235,4.410512820415106,4.615780614167159,0.06977900242307691,-0.02759633046153846,-0.9890396984615385
204,1.983073785178185,3.8975535828174888,4.372349175195312,0.06976640558620689,-0.03095902,-0.9836184434482758
205,1.7450868350287712,3.4738088147804183,3.8870223993301436,0.0687438427826087,-0.02990168156521739,-0.9921098660869565
206,2.0517399987146443,4.146439155134356,4.625499160801922,0.06712390019444445,-0.03830348380555556,-0.9846217422222221
207,2.886240551342924,3.7162601689108326,4.704177620374512,0.064429358,-0.03915156886666667,-0.9849746456666666
208,1.7177253399117618,4.875077318699843,5.168155855716392,0.0918107238275862,-0.03923802103448276,-0.9856411155172412
209,2.222755155344567,5.540791463134701,5.968718284529077,0.09127251476666666,-0.03159913713333333,-0.9834735796666666
210,1.1980292859946204,5.7750959064335365,5.897638756060813,0.10072727379310345,-0.02624419765517242,-0.9884464924137932
211,1.4132160317240907,4.004072471078392,4.245765353216014,0.07294052916666667,-0.027479256166666667,-0.9859835120000001
212,2.05636034885464,5.237765539239706,5.625923810992712,0.0871028423,-0.0276723702,-0.98819038
213,1.2810349286654217,5.205088873581338,5.359989133647757,0.09082433946666667,-0.030811046733333337,-0.9842361823333332
214,1.9471597013472326,5.040880212643016,5.402972878657588,0.08784464499999999,-0.035229269,-0.9823341413793105
215,2.244969837642659,4.322547157703199,4.869777943568173,0.07551174163333334,-0.033872376200000005,-0.9865791286666667
216,1.8091732252131973,4.032373836677169,4.41902029562243,0.071173924,-0.03607595539999999,-0.9890593196666669
217,2.8199938793261823,3.8384321616021864,4.7617249453239765,0.07247691240000001,-0.04249173223333333,-0.9836833079999999
218,2.1182840887459897,4.4126973416082675,4.893888967232833,0.07682008389285715,-0.0398545354642857,-0.9843269889285715
219,1.525939161659829,4.654846701201432,4.898057033773877,0.07516314033333334,-0.0289626032,-0.9867530783333334
220,1.9126684675287382,4.165246276595847,4.582698974056878,0.07214478253333333,-0.030643006833333337,-0.9857851093333335
221,1.922934296984662,4.255269195923451,4.668853250699026,0.07385813755172413,-0.02701549775862069,-0.9869489765517243
222,1.0311885789371829,4.295939131429868,4.417742578463287,0.0776313865,-0.0260146438,-0.9855467206666666
223,1.9007151694858597,4.634956475753719,5.0087578377496325,0.08111939200000001,-0.028991025999999996,-0.9865383633333332
224,1.5857863191424477,4.839847211487557,5.0924311442307255,0.08052233296666665,-0.0255467313,-0.986601557
225,1.142109618239273,4.143981540019817,4.298223125536956,0.07241740555172413,-0.020502998068965522,-0.9860079796551726
226,1.2544894113897727,3.869538533434741,4.0675150465689445,0.07035000256666665,-0.02191251663333333,-0.9878582753333334
227,1.0266280658531222,4.0281801181838475,4.156737077279306,0.07342211273333334,-0.01688759267,-0.9865227206666667
228,0.8254202880139864,4.0994488192589555,4.181582983611109,0.06667139103333333,-0.013281850536666666,-0.985764483
229,0.34304423381309246,3.1533965346599984,3.171982062765071,0.055445206241379316,-0.013398226203448273,-0.9904803224137931
230,1.4101872960190922,2.8904153960645966,3.215811257885559,0.05360003166666667,-0.020281783799999998,-0.9871696316666667
231,1.4253475431462312,2.6819526890200915,3.0369395384963687,0.042833503200000005,-0.02239547653333334,-0.9881536356666666
232,0.921832404351109,1.9127788219538642,2.1232480024912355,0.035990104275862064,-0.018590590000000004,-0.9896424820689655
233,0.8317860739043182,1.9480791875983234,2.118162874653499,0.035578088066666666,-0.01475068876666667,-0.9879646416666665
234,1.1204742234003566,1.9061435105116133,2.2109686437089255,0.030461480466666666,-0.013789417183333335,-0.9886170513333333
235,0.31797720633409476,1.855650092529917,1.8826872854546923,0.03572091590243902,-0.009549358712195123,-0.9875442687804878
236,0.8434280012635574,2.4013665964786965,2.5450964105605123,0.04350258161111111,-0.0039274933011111115,-0.9874734316666667
237,0.5679226475704446,3.6000646440908612,3.6445269933062376,0.06134009439285715,-0.01868072593214285,-0.9874469585714286
238,2.3472637767435915,4.2718049557752655,4.87316642073236,0.07070856113793102,-0.03253717058620689,-0.986119097586207
239,1.5478335781673034,4.015830541735552,4.303342784267188,0.06801860956666667,-0.029190553499999994,-0.9902435053333334
240,2.670051660381648,3.854179817795406,4.6875494621300575,0.07198954435714286,-0.04244420292857143,-0.9836268210714285
241,2.6745421894851584,5.270966468258696,5.908982103117659,0.09068251277777777,-0.041118721305555564,-0.9848187541666668
242,1.7779354765118474,5.579146134654111,5.854735551112022,0.09331868560869566,-0.04113572865217391,-0.9843356304347826
243,2.6037171051553587,5.43997728917576,6.029287642925551,0.09448729210714284,-0.03962251289285714,-0.9844900207142856
244,2.3652459300790722,5.3354123784642296,5.834794933766768,0.09090085426666669,-0.04122837373333334,-0.9841580363333333
245,2.390457713684934,4.94458448329865,5.490811347677304,0.08802328010000003,-0.0406914645,-0.9855110096666667
246,2.475694121875676,5.014594916455964,5.591025323264441,0.09062683589655175,-0.040906357068965525,-0.9842736075862071
247,2.207690863074312,5.446972069658661,5.876113527071834,0.09182884449999999,-0.03732748493333334,-0.984889962
248,2.105057511353465,5.12452776959155,5.5389736103896094,0.08949266383333335,-0.03579135713333333,-0.9844058853333334
249,2.203387470787759,5.12799785547369,5.580170874388595,0.09082176725000002,-0.03927220675,-0.9854644389285715
250,2.4138638670510657,5.117113197372089,5.656508120012591,0.0874759858275862,-0.03763372727586207,-0.9865553813793104
251,2.096980498909451,4.758604004011143,5.199184842018357,0.0839298499,-0.03714005543333333,-0.9858306153333333
252,2.005313613040245,4.795458578304808,5.196952055296703,0.08392115069999997,-0.035507428,-0.9839456230000002
253,2.149802455436407,4.827847494945585,5.283826059948228,0.08382625415384616,-0.03411311046153846,-0.9867945650000001
254,1.9939199991492276,4.725044821742061,5.127645453075043,0.08069200731034482,-0.03422390786206896,-0.9835516506896552
255,1.8561028971094933,4.593043790835111,4.953159178668631,0.08080823809999998,-0.030752380600000004,-0.9872876983333332
256,1.532992756753307,4.673601925962115,4.9180694423836036,0.0809198332,-0.0307059542,-0.9850522520000001
257,1.743158923452959,4.811906363113562,5.117215851659678,0.08193011510344829,-0.028621624793103446,-0.9865480720689653
258,1.6807340322066564,4.375586957684659,4.686697557372761,0.0745629858275862,-0.027319643793103445,-0.9894381582758621
259,1.5495455547409709,4.091877428856606,4.374982125220932,0.07465774579310346,-0.02554208131034483,-0.983660937586207
260,1.4572070138038535,4.024727791317647,4.2799990857540795,0.0697151205,-0.02878715976666667,-0.9881386719999999
261,1.6878626092341742,4.108062120416692,4.44073989305861,0.07206495786666665,-0.02932521736666667,-0.9865466883333333
262,1.882111683850508,4.684707596113152,5.047864073766744,0.07652101400000001,-0.0275714571,-0.9866946329999998
263,1.2708534300711203,4.084724491736525,4.277534965792396,0.07098813227586208,-0.022358289310344823,-0.9884069113793102
264,1.1017886968312507,3.7231101839618224,3.882496444982645,0.06591551493333334,-0.023103068,-0.9869118233333333
265,1.7336212439808842,3.9569484831500854,4.31950274015585,0.06912395055172414,-0.027034096724137934,-0.9860154331034481
266,1.3703199990992694,4.112728962214819,4.334638407808897,0.07221249223333333,-0.0253270882,-0.9878620539999999
267,1.7013838432223318,4.578090507696889,4.883385743795611,0.07609054936666666,-0.0306028061,-0.9852123890000003
268,1.9592294119788156,4.3210543189895025,4.7437126248211445,0.07455232579310345,-0.031860216896551725,-0.9858250220689655
269,1.6419337106731406,4.378021784477483,4.675229604218352,0.07245072250000001,-0.028260030466666662,-0.9882907963333334
270,1.3584560817118079,3.918829659174915,4.147258151038812,0.06966115326666668,-0.023913562433333334,-0.9871201093333333
271,1.1433940397915696,3.750239672585628,3.9204310927659427,0.062372083034482745,-0.02214814075862069,-0.9876540634482759
272,1.0396916854929643,3.3127001016512008,3.471849070632799,0.06045068293333333,-0.01849384256666666,-0.987649489
273,1.3530226805210561,3.43395124197325,3.69059601466651,0.06055264903333334,-0.0203994361,-0.9871483339999999
274,1.184472132745951,3.3068606994609335,3.5123700996222045,0.05456717336666666,-0.022405455166666664,-0.9867808276666667
275,1.2296207172451177,2.8521594503922163,3.10572560060213,0.04739709686206896,-0.01822560872413793,-0.9899277179310345
276,0.9470603301636941,2.0095407216661054,2.2214430825438307,0.03930028558620689,-0.0193890974137931,-0.9873906265517242
277,1.2066957217352914,2.5070455176885487,2.7821686418690046,0.04458894096666667,-0.018993316883333333,-0.9874644636666666
278,0.798993276965403,2.9430559452276746,3.0494929070213908,0.049623957133333334,-0.013810652856666666,-0.9871292656666668
279,0.63354986011154,3.3074739413987766,3.3675396577351586,0.057562576068965525,-0.01596040455172414,-0.986833744137931
280,1.104276160097255,3.4539656265992904,3.625993221440077,0.06111034713793102,-0.017449042103448272,-0.987995035862069
281,1.346419079311314,4.05355323556276,4.270961538687562,0.06869043394117648,-0.02343439738235294,-0.9867765629411764
282,1.7466865254307258,4.06617716953109,4.42488266470846,0.067845416625,-0.024751502291666668,-0.9870573241666666
283,1.0498118572709008,3.820971631212399,3.962359751665596,0.06503297986666666,-0.02074829366666667,-0.9875576420000002
284,1.196454058674914,3.5699965123940998,3.7649069533237,0.061072815103448266,-0.018950730206896554,-0.9884636693103449
285,0.9353594864174704,3.3837982220890135,3.510551286908294,0.060662450900000005,-0.014888755900000002,-0.9869480166666665
286,1.1229896585190882,3.5094554791808497,3.6845360602804202,0.0590627641,-0.020816472266666664,-0.9866916976666666
287,0.9039425650750995,3.0990104681024144,3.2280305221350507,0.05423240035714285,-0.015388222035714286,-0.9868952310714284
288,1.538276274609149,3.599936915344259,3.914425234096558,0.0672462744,-0.029356858933333337,-0.9867191299999999
289,2.2497082405216657,4.405279201216359,4.945472059582996,0.071338844,-0.029715758,-0.986021705862069
290,1.4149918641186545,4.044160946291461,4.2841700998775325,0.07173406413333333,-0.026591501833333333,-0.9870802813333334
291,1.3731404508568157,4.152540720635445,4.3733061297112075,0.06931770993333333,-0.023467734066666666,-0.9858388300000002
292,1.2785240344588926,3.877329378971521,4.082378070423679,0.06718989293333334,-0.021173059799999998,-0.9873636806666666
293,0.9724094558244673,3.687111911631446,3.8130130777073443,0.06398513024137932,-0.013512156482758624,-0.9877380975862068
294,0.3890973916079954,3.534339365426623,3.555665823995657,0.06200284796666667,-0.009393487810000002,-0.9879585249999999
295,0.4103410088890381,3.4229470072395043,3.447425936822339,0.05992251096666667,-0.00668807065,-0.9877410553333335
296,0.5243702774760083,3.687570531492112,3.724615530442243,0.0650970972,-0.011184470686666666,-0.9864001776666667
297,0.8276562411064802,3.948751689981933,4.0344231118066824,0.06187045547826087,-0.014873195499999997,-0.9885600226086957
298,0.5397730704387751,3.0625166239756667,3.1096761113096676,0.05937287734285716,-0.00848243174,-0.9869370197142855
299,0.7876613302523071,4.519248635954733,4.5872357090418205,0.06528431833333333,-0.0181568147,-0.9890580310000001
300,1.1744179352270783,2.9580845628686276,3.1824983979744337,0.054605256833333345,-0.011002825456666667,-0.9882038660000002
301,0.6078955392462333,2.3942671304838363,2.4701896595158694,0.05010670488571429,-0.012243453622857142,-0.990061541142857
302,0.5353619725818372,3.660356490573847,3.699247498015227,0.06113801595833334,-0.00596245871375,-0.9822878616666667
303,0.6422572686135908,4.409025236407885,4.455466686603318,0.07001003267857142,-0.017732355457142857,-0.9884723017857144
304,1.8508037106961264,3.751164492500873,4.182321536289418,0.06708939803571429,-0.024652055714285716,-0.9873682410714285
305,1.3206957062936624,3.7490448059450325,3.9745545648887917,0.06521725630000001,-0.0230886339,-0.9875865073333333
306,1.5815111839528129,3.8335106834924852,4.146474192145076,0.06432875726666668,-0.026625590799999998,-0.9859857186666667
307,1.5334894513538988,3.7659450351843033,4.065777211180007,0.07075297562068966,-0.024604922,-0.9879097451724139
308,1.4034689739711574,4.35421526949913,4.574398566371543,0.07373105475555555,-0.024914831866666667,-0.9863505500000003
309,1.2743023482485085,4.302929530642278,4.487314888791395,0.07127180266666666,-0.02125801975,-0.9887630925
310,1.2624915162999277,3.9796718222583496,4.174818381619068,0.06973833659999999,-0.020064350333333335,-0.9876150306666668
311,0.8206110505862365,3.708895631540977,3.798469223600567,0.06633323727586207,-0.017934003379310344,-0.9869403296551724
312,0.9872153243133089,3.76033632909992,3.8875858415585545,0.06435901503333334,-0.015268688416666665,-0.9886897413333333
313,0.9732193135131514,3.684398342674869,3.810595893150991,0.06265918506896552,-0.015909622224137932,-0.9878991403448275
314,0.7523953510574214,3.328668015365093,3.4125492636553876,0.05706543377142857,-0.013884581385714287,-0.9877640117142856
315,0.8697255120518378,2.9823332759651016,3.106453115772419,0.053567340666666664,-0.013346083666666666,-0.9875281808333333
316,0.5560150209297204,2.894335630199653,2.94721367201169,0.0507443615862069,-0.011107789558620691,-0.9921078389655172
317,1.0746748180714358,2.9664914270943825,3.154990516137703,0.05222885786666666,-0.017571207023333334,-0.9857719836666664
318,1.2699400118848705,2.921402299026647,3.185269398238154,0.04937452734482759,-0.01845816675862069,-0.9885218310344827
319,1.0582871878467655,2.7474717909144473,2.944098236885699,0.04935832156666666,-0.016698402983333336,-0.9883718863333333
320,0.712869492544469,2.8134671028639113,2.902304521236533,0.046870444034482754,-0.01612282505172414,-0.9889856165517241
321,1.180981407478383,2.7295979882914283,2.973948035219493,0.0511995333,-0.0190458485,-0.986905106
322,1.3248553063315234,3.222591071034131,3.484032641450843,0.051697021999999995,-0.019693416233333327,-0.9887757180000001
323,1.2303723797382051,2.773127183130369,3.0336229606658205,0.04680891506666666,-0.019550620900000003,-0.9876432780000001
324,0.9361974122367782,2.381035407073489,2.5583765540204864,0.04456348003448276,-0.013996409086206899,-0.9880674586206897
325,0.46426307325964455,2.653000559724973,2.693287602049906,0.044013412413793106,-0.009723802582758618,-0.9889517037931035
326,0.40367216336303985,2.455882603991405,2.488817143359403,0.04264673395833333,-0.005907697437500001,-0.9870371816666667
327,0.26063306654988505,2.317159776299238,2.331763707123801,0.04119045666666667,-0.0063281610527777775,-0.9888198647222226
328,0.6471946084576545,2.374865388552719,2.461423688133417,0.040178491000000004,-0.008939506736666667,-0.9880401316666666
329,0.6769889800882616,2.2066991168139127,2.308161267064633,0.03982152413793103,-0.011744158672413792,-0.9895818299999999
330,0.6924536456898427,2.1639885281590234,2.2720278129466878,0.037787543766666674,-0.011420502833333334,-0.9893464783333333
331,0.27714616841817763,2.3238313799290102,2.3402906142255846,0.04027406050000001,-0.0020747227000000004,-0.9865639883333335
332,0.08102564673452675,2.088809044188567,2.0903792645614683,0.036625473533333334,-0.008418760323333333,-0.9903946536666666
333,1.0438862510670734,2.2005182255048465,2.4354554229865197,0.03898146134482759,-0.009301426610344828,-0.9871985186206895
334,0.11316892453583147,2.2983945643807586,2.301177504806704,0.04154423378571429,-0.004970394179999999,-0.9884718146428572
335,0.49329605879214444,2.5451069665333637,2.5924410116647567,0.046861415464285724,-0.005712030588214287,-0.9894303653571429
336,0.3947508588195367,3.281214784770364,3.3048492119700126,0.053789709583333324,-0.007006802945833332,-0.9870963804166667
337,0.2926382545745614,3.05531130439463,3.0692805553095224,0.05234190877777778,-0.004658991285277778,-0.9880937672222222
338,0.3917868737346864,3.237748827158542,3.261341901598413,0.055650238,-0.007907874906467709,-0.9894409525
339,0.9555302568077563,3.093708717524628,3.237774573636326,0.05571600037142857,-0.01824579884285714,-0.987665452
340,1.6311630142740066,3.138733461119357,3.5369023562501583,0.05331695493333333,-0.019820912766666664,-0.9886625079999999
341,0.4440887100388397,2.742322776326842,2.778020585506798,0.04686152953333334,-0.0046063853899999995,-0.9878304563333333
342,-0.36125924476715415,2.5983449669150733,2.623321430757431,0.05015877720689655,-0.00023848447310344822,-0.9892680406896552
343,0.032631652870619615,3.4936939639210753,3.493846164080715,0.05869427783333333,0.0006826816766666667,-0.9872466529999998
344,0.41053887684884877,3.7078581587687935,3.7304850819510094,0.0630120062,-0.005001169548666666,-0.9855364463333334
345,0.8698118455189641,3.863693198211804,3.960246281054897,0.06362312131034482,-0.01609978903103448,-0.9871263593103448
346,0.7137970917696268,2.966157190541282,3.050760481183588,0.05405780523333333,-0.009785900489999999,-0.9886668249999999
347,0.6501431296325072,3.7422450066487842,3.798220971104621,0.06678119489655171,-0.018299420706896555,-0.9847867151724136
348,1.7539511855609196,4.203612234797663,4.554248409689438,0.07264573392857142,-0.01566208077857143,-0.9868020910714286
349,0.32843188693237024,4.25517325538025,4.267806057903073,0.07197366643333333,-0.008427327563333333,-0.9895987280000001
350,-0.4604050793024053,4.876117336732991,4.897752659566398,0.07570637833333334,0.004972317872,-0.9837309626666667
351,0.24892660377859063,4.118085844174524,4.125589501701649,0.08324066017391306,-0.006481165589347825,-0.9914353230434783
352,-0.07254130347714316,4.74975769673144,4.750310343377559,0.0787827261111111,0.02331846607916667,-0.9831149438888889
353,-2.8904177731939296,4.052448973712787,4.976235458270847,0.061400666500000006,0.02607854566666667,-0.9894602446666667
354,-1.32997766863198,2.7441916081063082,3.049274566635027,0.06251105562068966,0.017803060344827582,-0.9901904313793104
355,0.1673927778187552,3.6201702824551285,3.6240331011798648,0.06146266296666667,0.013728512332000002,-0.984743284
356,-0.13260451435650872,4.088492344969835,4.090638551207105,0.07576925919999998,-0.0054643384,-0.989617824
357,1.2483888296586443,5.141590914219673,5.290580878337243,0.08764196448275861,-0.013347973416551724,-0.9841822913793101
358,0.6178965543917772,5.899574450546952,5.931730320147815,0.09162232990000001,-0.010180626346666668,-0.9879043073333332
359,0.025535219001242743,5.383482762503973,5.383543143842584,0.09079386720689653,0.006897466858965517,-0.9818221403448275
360,-0.8363621531422974,4.663606798179421,4.737845980673263,0.0866090811,-0.0012981847653333334,-0.990255942
361,2.139767771029196,4.589079982466642,5.062456449572711,0.08213839196551727,-0.026545442805172414,-0.9817291320689655
362,2.6060892149018255,5.097411469198956,5.723405791011851,0.0898631524,-0.0350669317,-0.9856823066666668
363,1.6041633689338077,5.871890980015456,6.086331226813843,0.10134430683333331,-0.041778624199999996,-0.9854373723333333
364,2.444557807351039,5.996813967853537,6.474241346466792,0.10415769253333333,-0.03650823066666667,-0.9813604236666666
365,1.4526049323063568,6.812661428244698,6.96508887179592,0.11097153462068965,-0.02597825856551724,-1.0018211513793103
366,1.306073040310157,4.199114008785477,4.39719569067541,0.07449059629999999,-0.017248563178533335,-0.9781291466666667
367,-1.0518796657134155,4.105156852772579,4.237554672388597,0.06140896051724138,-0.01989563024,-0.9851121099999998
368,2.743821793547949,3.953233278408486,4.810889627596603,0.0716470055,-0.025674708756666664,-0.9824453609999999
369,2.2080507276758694,4.285623057924602,4.82005770686638,0.0625593142,-0.026429472813333334,-0.9952105476666664
370,1.258216096035797,3.230298818235107,3.466447809805942,0.09104508296551722,-0.02665492505517241,-0.9865043362068967
371,3.0227063891438695,4.98443288513739,5.827371614712865,0.09569086043333333,-0.056817087633333346,-0.9875103693333332
372,3.7304319714354945,7.433111585099402,8.311984672599996,0.11294198276666666,-0.05269536249999999,-0.9755442393333332
373,2.8067788574313797,6.872199545773862,7.420735383300549,0.0821268980357143,-0.05108650432142857,-0.998828674642857
374,4.581389607742728,2.3089186034216964,5.129217097364212,0.08433953032142859,-0.08580471064285715,-0.9706433989285713
375,6.583479369046609,6.798261778501673,9.452766733724856,0.11675090043333335,-0.10889424086666666,-0.9751041713333333
376,6.76307516933506,7.422825625167332,10.02901330098297,0.1146093895172414,-0.11692417772413793,-0.9829946372413793
377,5.730103458183085,6.58448489929371,8.720364598305943,0.11262940910000001,-0.08898737126666667,-0.9787432173333332
378,5.043067916205612,4.346301086559077,6.6538741257090175,0.06804896396666667,-0.08101492639999999,-0.9757712930000001
379,4.244429089271255,2.0563461681948914,4.715506259978164,0.06811546573333334,-0.08318185799999998,-0.9850046706666667
380,5.902446926465369,5.9973121436135255,8.40709304279512,0.09957989003448275,-0.11608173903448277,-0.9746585758620689
381,7.495880855927751,8.48571636828056,11.304146074426116,0.1290948053,-0.105683235,-0.9864983420000001
382,4.5166796732310805,6.720292330834702,8.091294624514527,0.11003499266666666,-0.08823286009999999,-0.9797455393333334
383,4.961906513661359,4.695694912887067,6.827509943934503,0.09694142006666669,-0.08414346726666669,-0.9774927870000002
384,5.214975709558733,6.803117336903775,8.56448361585991,0.1121801378275862,-0.0961482159310345,-0.9803083148275863
385,5.412979219713184,7.376554682726378,9.140664102743784,0.12280122593333333,-0.08610752926666668,-0.9829263326666668
386,4.194328932009177,5.653648581146803,7.03555133836469,0.08707251570000002,-0.07003486113333333,-0.9760487923333334
387,4.164874047823118,4.231458991820611,5.93463239521453,0.08867936673333335,-0.06546768363333334,-0.9824619126666666
388,3.4015119527886246,6.511800326397954,7.343293211299628,0.11520011620689655,-0.06664425451724139,-0.9837556644827586
389,3.7009899525665113,6.5007401882738645,7.476503694809682,0.10157663934482758,-0.06191169196551725,-0.9795494631034483
390,3.5287234406016506,5.505803545495664,6.536620001077037,0.09229665429999998,-0.06838790149999999,-0.9895130746666665
391,4.143520034992546,3.9841899485845076,5.745853853016867,0.08082578292857143,-0.059830257678571426,-0.9855542478571427
392,3.193728882219881,5.946465409145088,6.74712521669992,0.10099070220000002,-0.0563250286,-0.9826198296666667
393,2.374978251434955,6.112416077295048,6.555969419683375,0.09667047486666668,-0.04734821536666667,-0.982445973
394,3.0411332974243837,5.399297077802623,6.194634997611002,0.10404073153333332,-0.044406259833333336,-0.988017169
395,3.015628735122979,5.24729139376284,6.050011553901172,0.08330793703448275,-0.059241657931034496,-0.9827419862068966
396,3.5939595452731825,4.429298119255432,5.701708468097752,0.07810161129999998,-0.050366692700000014,-0.9835934696666667
397,2.9997408720332586,5.17536213740659,5.979826756078638,0.0919037584666667,-0.059323412833333325,-0.9879123513333333
398,3.2357738030738554,4.773201583453376,5.764498862707252,0.07611963337931034,-0.04928726931034482,-0.9823808220689656
399,2.7980161470418943,4.489987035664577,5.288935891826124,0.08595178310000001,-0.054494460800000005,-0.9843125153333333
400,4.001719770091873,5.62083068668706,6.8960914213666955,0.09359954286666665,-0.05954394936666666,-0.984896335
401,3.3556677734605143,5.499319756691999,6.439597509680692,0.08972489962068968,-0.06428618972413794,-0.981451365862069
402,4.446180298344811,5.154037880406549,6.802885710299746,0.09739964233333336,-0.0698246776,-0.9825417900000001
403,3.7002064111365938,6.063514235615597,7.099758210545492,0.09804139883333335,-0.06706967466666668,-0.9819005066666667
404,3.8095680456679415,5.082291197766693,6.3485745043143895,0.08638326100000002,-0.06494195631034484,-0.9825004744827587
405,3.7497708594789803,4.985514664923138,6.235432899504122,0.09434572093333335,-0.057632104033333326,-0.9842466516666666
406,3.5077134708939983,5.4848744444261905,6.507709586245154,0.08844874766666666,-0.06744373326666667,-0.9861928656666666
407,3.672224744380567,4.193124793860473,5.571664010907175,0.0708961507586207,-0.05962840575862069,-0.9886883637931035
408,3.153916472834436,2.799211003843731,4.216023522002894,0.06689076296666667,-0.04892127989999999,-0.9814383386666665
409,2.232426081859958,5.776512137224118,6.191519993057061,0.0893220738,-0.04380086383333333,-0.9817241326666667
410,2.7829620930493286,6.498236606396607,7.066733018693882,0.10787625256666668,-0.04304052640000001,-0.9897360583333333
411,1.497535153575371,5.707115694632092,5.899691429785098,0.09928774431034482,-0.03229945596551724,-0.9866532575862067
412,1.9778911607384753,5.380571876909919,5.731587874144643,0.10353454441666668,-0.03484157216666667,-0.9804783983333333
413,3.149629922922864,6.998897297871574,7.671722853079195,0.10742297008695653,-0.04235371904347827,-0.9841404669565218
414,2.0966549292534844,6.293625856417497,6.632344398146524,0.10813357711538461,-0.03253523503846154,-0.9874915365384614
415,1.2434267669041195,5.985118615845775,6.112456710203768,0.10655959556666666,-0.031006473733333324,-0.9814886993333334
416,2.936215736688518,5.599595530592926,6.320550759765545,0.09670723259999998,-0.04167245616666666,-0.9778217293333332
417,2.418466373675342,5.090013502574697,5.6339879498019405,0.09075666734482758,-0.03890701089655173,-0.9847176824137932
418,1.8178007612157028,5.596821390209618,5.883731106605851,0.09227379323333333,-0.03516304520000001,-0.9894484866666668
419,2.3506001770607,4.565476044259137,5.133925636185511,0.07533631056666666,-0.03353580913333333,-0.984042376
420,1.627465435810979,3.2193916316559616,3.6069846203781957,0.0657564692413793,-0.02980631304482758,-0.9897894100000001
421,1.563146098071425,3.1256041347341985,3.4943386367991542,0.059271950733333335,-0.03502000103333333,-0.9805097669999999
422,2.9307024215769184,3.811649375981505,4.806767202192126,0.07015647131428572,-0.05604392514285714,-0.9913753402857144
423,4.797029315767403,5.737779753319629,7.473726958021139,0.09102345925,-0.06179445708333333,-0.97699570875
424,3.5658651956925,5.449269068653831,6.509343748381034,0.08794451237931035,-0.05623689941379311,-0.9948524944827588
425,2.6901348079920786,3.8852015198421244,4.724459665901855,0.06633738892857144,-0.04314702610714285,-0.9771867389285714
426,2.618456590167838,4.299084713282348,5.03245175793561,0.08065899153333335,-0.05147146673333334,-0.988938017
427,2.986952619883584,4.126343559085249,5.092461501408223,0.07248109965517241,-0.04866231575862069,-0.9841440810344828
428,2.6399592255461672,3.978776605616772,4.773765808119298,0.06763959575609757,-0.041494772609756106,-0.9868997234146343
429,1.4737761244094496,3.9318075521037343,4.198537369909229,0.07928812552941177,-0.038382424,-0.9895624058823529
430,2.328819168698963,5.054289262556804,5.563736339110137,0.08241844773333336,-0.04441473503333334,-0.9833549513333334
431,3.2501222160887635,5.1685752743401565,6.103178663317978,0.08547105643333333,-0.048429377999999995,-0.9831295059999999
432,2.9372528891236933,5.449614192790968,6.188676167071049,0.09847450106896552,-0.05082694310344828,-0.9853295793103448
433,2.894184078258874,5.329875033757159,6.062976993685541,0.09135625716666666,-0.04516540349999999,-0.9921783080000001
434,2.4647119309333076,5.168929787842631,5.7250457378308015,0.0902679872857143,-0.04543291582142856,-0.9825239660714284
435,2.4130690308064264,5.293077477878449,5.815754037171751,0.09133792503333331,-0.03802967306666667,-0.9820451596666665
436,2.3768848336476376,5.395667548428353,5.894582012359937,0.09182617550000001,-0.0417451601,-0.9850323156666666
437,2.565481365734085,5.601032177674825,6.158918275486108,0.09904154873333333,-0.0455755915,-0.9778474926666667
438,2.8447681641443965,5.772473159059272,6.433253308324327,0.10187497703448273,-0.045430558448275864,-0.988621273448276
439,2.311805463457507,6.238281002311384,6.651274819896996,0.11367165324999999,-0.04128392464285714,-0.9891609682142858
440,2.470881953042343,6.823674593166496,7.255266811775774,0.10645976675862069,-0.03692741606896552,-0.9874540431034484
441,0.7598109824553482,5.717721633815157,5.767818972122719,0.10634804653333332,-0.009962081846,-0.9813368446666666
442,0.12572007758738982,5.60189457028625,5.603300627241924,0.10056983979999999,-0.007321351634999999,-0.98422496
443,0.5874625732641463,6.242837721551578,6.270308468691564,0.10333906355172412,-0.01434766269310345,-0.9823014231034483
444,1.1456805173309716,5.828886163045819,5.940030828047988,0.10542907817241379,-0.015928118579310344,-0.9781474179310344
445,1.4627364609855664,6.250155136384653,6.418375433918123,0.11041529663333334,-0.01913779025,-0.9814860863333332
446,1.1149649413468354,6.603302409848085,6.69636024416744,0.10892260483333334,-0.019456597500000002,-0.9854376736666668
447,0.9065164543727625,5.9331346793870114,6.001743056918291,0.10374719809999998,-0.015255542233333332,-0.9831119580000001
448,0.572888545953824,5.868963875967062,5.896760939001715,0.10087181865517242,-0.012807838738965516,-0.9834379741379309
449,1.6276647073617803,5.585683056158858,5.8172801939239775,0.09705050896666667,-0.026983192533333332,-0.9849257486666667
450,1.914078709593004,4.887705006868155,5.248282138464458,0.0849953373235294,-0.025611649529411768,-0.984683560882353
451,1.2142178590732202,4.881167689542082,5.029568015922718,0.08539039204166667,-0.02283215041666667,-0.9757986537500001
452,1.577808929448217,4.478694613926671,4.74795889885193,0.08357935593333334,-0.022176407345333337,-0.9794422589999999
453,1.1174967817269594,5.242684902686697,5.360135890432227,0.08522834213333333,-0.021459324096666663,-1.003144742
454,1.171251153410544,4.071858174976371,4.2366906796016695,0.08151525739285713,-0.025551679732142858,-0.9874862814285716
455,1.7397562559046227,5.452101436066215,5.72215171035997,0.08300946436666666,-0.0296640673,-0.9801979590000001
456,2.4771613362757394,4.959924359714044,5.542728581950245,0.09077362558620689,-0.032988530344827585,-0.9817859806896553
457,2.312494292259301,5.304582328587836,5.785406991513212,0.09022056173333334,-0.03907391339999999,-0.9801897176666667
458,1.7621622288444516,4.959930396324506,5.26292354124421,0.08956271216666666,-0.034831227033333335,-0.9926358403333335
459,0.8852779597536341,5.121506075030417,5.197254379082201,0.08124666531034483,-0.030291813478620682,-0.9900161727586207
460,3.95510414266509,4.519352485066241,6.002910155853145,0.09239577766666666,-0.04714630846666667,-0.9855303459999999
461,2.9289907196681337,5.878661003496553,6.5656310664080495,0.0940633446551724,-0.04803732565517242,-0.9908399589655172
462,2.4626211155779507,5.177734498198685,5.732095406056881,0.0862383279,-0.04538835616666667,-0.9824563856666668
463,2.669141883613283,4.357221607599619,5.108420233218637,0.07666865533333334,-0.04244465360000001,-0.985925413
464,2.6442888392878596,4.498333120582314,5.216597527880011,0.08439026368965516,-0.044914581310344814,-0.9816789137931031
465,2.793356914580905,4.939232042051034,5.672699054396098,0.08212321853333333,-0.04494522713333333,-0.9928689906666666
466,2.3071199949059817,5.1278412965816695,5.6216846500285795,0.08966492736666667,-0.042581539099999996,-0.9797265723333333
467,2.442669999071879,5.010767329436264,5.5730785808860634,0.08465445329629631,-0.043050169666666666,-0.9838077244444444
468,2.165929713749179,5.062310853830501,5.5050910874304915,0.08883523569999999,-0.02979269166666667,-0.9803537899999999
469,1.9291940017943852,5.1294758191139165,5.479357835684709,0.08499241803333334,-0.03854944169999999,-0.9843111853333333
470,2.3028086133445185,4.833212038662094,5.352595681319594,0.08903082646666666,-0.042494284400000006,-0.9903623806666666
471,3.1240117707148176,5.14207924595449,6.01449974098175,0.08229749789655175,-0.05007820206896551,-0.9863980993103447
472,2.4337056905543006,4.082713727072468,4.7519938506267385,0.07142182007142857,-0.03912726807142857,-0.9869667603571426
473,1.5809442816647383,4.656336136713335,4.916843082437304,0.09250468810000001,-0.02218804116,-0.9872979483333335
474,1.711145924704073,4.780115144908735,5.076487394025347,0.07835840682758619,-0.0250172,-0.9783860631034483
475,1.3316607349272667,4.930366435528784,5.106608870520504,0.07766719383333334,-0.03201244143,-0.9913175226666666
476,3.07873781963742,2.6078594935225334,4.03398189993888,0.06069045813793103,-0.0424713498275862,-0.9830377079310345
477,2.395393159723018,5.3859688256735465,5.893187215564168,0.0856407241666667,-0.031091797388,-0.9948854583333333
478,-0.5345338309902602,6.824507628147342,6.845310677693074,0.0830081285862069,-0.014380619416206896,-0.9894688689655172
479,0.1695253748288773,2.107444868692483,2.1142492203626055,0.05583912026666667,-0.024141489878333342,-0.9740305586666665
480,2.7461688400779853,2.2784041663981363,3.567715333764474,0.05821894824137931,-0.011290582286206899,-1.0011146189655171
481,0.5889309045925871,3.3164249390219402,3.368252744110945,0.05034751520000002,-0.022099348523333333,-0.9939123750000001
482,2.144165367337263,1.9498518016580677,2.89785990906389,0.0424885863,-0.026061061116666666,-0.9750452140000001
483,1.3872413626955398,3.14077175916829,3.433213918388535,0.03603853993103448,-0.027430343379310346,-0.9932079899999999
484,1.9141504532599145,1.395501813178458,2.3686858534470674,0.033089440482758616,-0.014267513627586208,-0.9935519537931036
485,0.18354519247403253,2.0743289345127898,2.082429985872658,0.035502835600000004,-0.005588101182333332,-0.9780193926666666
486,-0.4010012764207043,2.7106554710668744,2.740134142327696,0.06178702446666667,-0.010474963509333335,-0.9912201206666665
487,1.8650399429722595,3.6023083148639947,4.055911047329901,0.057796417,-0.02454980867666667,-0.9885271033333335
488,2.0694124113628125,4.298640457167547,4.769983094354684,0.06860484948275862,-0.029402549655172416,-0.9927767431034484
489,3.0163718797232546,2.158802798614218,3.708722432523724,0.06030923206896552,-0.031614405103448276,-0.990536991724138
490,1.1411730300788712,4.857097992341406,4.989043563283238,0.0817108968,-0.022996601813333333,-0.9926140503333335
491,0.668796567145854,5.18893375215733,5.231739556710313,0.08729417013333333,-0.025103017533333334,-0.9900870383333333
492,3.3286275224533766,5.513407325539576,6.437638887440562,0.08731097396551725,-0.04503524906896552,-0.9808220127586208
493,3.1643688364873364,4.709757106873051,5.672078487824644,0.07565472703333334,-0.05020935876666666,-0.9834372103333333
494,3.045339572926896,2.641181707866601,4.0303055376525485,0.062188744928571425,-0.0555598430357143,-0.9826657721428572
495,3.7658889449284065,3.9827662710758074,5.479187035289873,0.06804791626666667,-0.06179495320000001,-0.9839719046666666
496,4.146340243389925,4.281454593193833,5.957429651566121,0.07072910599999999,-0.06859914313333333,-0.9740307766666667
497,4.081717224804557,5.467638817347755,6.819447843830331,0.10003203251724135,-0.060282084068965514,-0.990810531724138
498,2.369134322010046,5.658278643312003,6.132752571952286,0.0974127457586207,-0.05722986172413794,-0.988655886551724
499,2.960334248497392,4.928010587619884,5.746933315669727,0.08214220903448276,-0.05267894393103448,-0.9838844627586206
500,3.2889164059923592,5.621855589164382,6.510567407451,0.09559248943333332,-0.054152708099999995,-0.983200894
501,3.2015316456587635,4.593076202060358,5.5968012058900625,0.08236040023333333,-0.05191921186666666,-0.9855214406666667
502,3.223410412290397,4.3738742795666905,5.431478183801438,0.08443980616666667,-0.05675691823333335,-0.9801885576666666
503,3.5701504213282673,5.551778900438098,6.597597825269709,0.09421268989655172,-0.057218081551724136,-0.9898454748275862
504,2.9787486131367813,5.833906491493085,6.548031622960837,0.09177929520000001,-0.0546330257,-0.984054751
505,2.92056773834151,4.408847445951567,5.286852272991973,0.08544297170000001,-0.05394729093333333,-0.9842334
506,3.543953049365241,4.424379706357055,5.666547335875225,0.07357929950000001,-0.051737655099999995,-0.9818502706666667
507,3.560759086421137,4.729146785851017,5.917349176618454,0.08801950693103447,-0.05874314593103449,-0.9765958748275863
508,2.744263076872648,5.228914597333619,5.903524803293175,0.08788630183333335,-0.05100116153333334,-0.9987545066666667
509,2.1081656638338218,4.527474493935765,4.993308801828506,0.08118962449999999,-0.03604229973076924,-0.9988603892307691
510,1.0049555626875164,4.070572401005802,4.192588171134877,0.07363451723333332,-0.0301309412,-0.9845685343333334
511,1.8432565097673568,4.006670053037035,4.4097005613942155,0.06316514426666667,-0.0265331978,-0.9935475690000002
512,3.0351402371078984,5.425723067405676,6.214739664753643,0.08717794976666669,-0.033887228299999995,-0.9767645823333334
513,2.318155663950297,5.130016744557278,5.6281922654495755,0.1083284597586207,-0.046919069793103445,-0.9804667051724136
514,2.5085455484971844,5.160043234712453,5.736011022340467,0.08814271750000001,-0.03207989275,-0.9852147260714286
515,1.3754405608589935,5.605775100165898,5.771525844808075,0.10190806999999998,-0.0311595439,-0.981373948
516,1.2619463527078634,6.485345063468064,6.6064666818180005,0.10777772943333334,-0.02308062455666667,-0.9908177823333335
517,0.8630102367412703,6.908591960653625,6.962026753121588,0.11786855803333335,-0.011045398022,-0.9778858366666668
518,-0.017402195880393625,6.645203562482485,6.645226246273484,0.11382196837931034,-0.007657463186206896,-0.9838385589655173
519,0.37913039435530743,6.541534844516915,6.552464641545535,0.11567240263333332,-0.00812296148,-0.9829846833333333
520,0.5911697820507664,6.733986815812506,6.759766969324323,0.11505552365517242,-0.007462529396551724,-0.9763568720689656
521,0.5220391489666073,6.438651471497955,6.459691130135658,0.1127805857,-0.00909437679,-0.9882596476666665
522,0.6691013272099052,6.151167038925393,6.187312112126641,0.10649786803571429,-0.012014628510714288,-0.9786041217857143
523,1.0635183347446997,6.360475455452764,6.448416013972461,0.11117399986666666,-0.008564001983333335,-0.9865368333333334
524,0.6455870290968576,6.636198348382352,6.66738672357635,0.11671012110714286,-0.008678273502142855,-0.9821125007142857
525,-0.39259085637695407,6.077741708745962,6.090360689565263,0.10764356324137933,-0.0006978578862068967,-0.9935287099999999
526,0.5207230029275906,6.60728335931886,6.627680046187494,0.11096419841379311,-0.008155882606896552,-0.9778310803448276
527,1.3824392655119613,6.333792608064149,6.48230480379992,0.11502548029999998,-0.014959730090000001,-0.9838519333333332
528,0.5494850927439767,6.542601894643282,6.565535768609341,0.11185303669999999,-0.00890951684,-0.9833528243333335
529,0.030300228180810372,6.672662180169685,6.672730664429357,0.11937270593333335,-0.008677496443333332,-0.9818555093333334
530,0.6210523210694724,7.094176922940464,7.121171191152616,0.11990813996551725,-0.005610336365517242,-0.9724589096551723
531,0.4409117731749546,6.845238878860668,6.859356578738403,0.11565201196666665,-0.0056190540913333325,-0.9800933436666666
532,0.19946624713047878,6.402221643470063,6.40531521690184,0.11432523899999998,-0.007745911183333333,-0.98613795375
533,0.404336614294107,6.743348531680956,6.755403907183667,0.11600457661111113,-0.000585680501527778,-0.9806176155555557
534,-1.0395591681732674,6.729188612816515,6.80864811109209,0.11843144667857142,0.010960635835714286,-0.9817462196428572
535,-0.1939204753140327,7.002128613226096,7.004799987504518,0.11864860056666666,0.005932954944666667,-0.984909552
536,0.27491535459227556,6.958451292753398,6.963853164423211,0.12336639636666667,-0.0034796888776666662,-0.988327283
537,0.42632893059530413,6.919411850529261,6.932469418542924,0.11671609093333335,-0.0027866065542466664,-0.9808551686666667
538,0.2995150684475567,6.442443226159954,6.449372497301086,0.11269549379310344,-0.0057625087172413795,-0.9729258320689655
539,0.10355042357952378,6.400697766138677,6.40153184328987,0.11209175503571431,-0.0010534966615714284,-0.9868191182142857
540,0.026615521546064568,6.285116182606286,6.285172310381007,0.10837797516666665,0.002621414007666666,-0.9887836756666666
541,-0.40824913865986684,5.814139770570467,5.828405970611988,0.10184285482758622,0.006668717164137932,-0.9868327748275862
542,-0.47239036648284993,5.5756142914146425,5.595527011284704,0.0994630857,0.005957027993333334,-0.9839670546666667
543,-0.34485458621933357,5.673741120114569,5.684177513200883,0.10105548713793103,0.012890204,-0.9929432403448276
544,-0.15497137445056527,6.10121523116151,6.103175614343177,0.0988007713,-0.004174286514666667,-0.98016221
545,0.4350454342588476,5.20523673128389,5.223335426192785,0.09726763093333331,0.011818810243333333,-0.9832511483333335
546,-1.9397289212681275,5.7144028589447595,6.033611158315044,0.09566641566666667,0.020046314416666666,-0.9798325346666668
547,-0.9801985257695199,5.227753033886435,5.318601621355727,0.09466165993103448,0.011227754157586206,-0.9934598720689655
548,1.5216037390331947,5.76711461510845,5.963812893020922,0.09891820656666667,-0.01916415917666667,-0.9782926173333332
549,2.1469499150927334,5.542909927533128,5.942966790698387,0.09127323648275862,-0.027388117441379315,-0.9799392906896552
550,1.0768231230259804,5.53553413850812,5.638978286416429,0.08787189643333333,-0.03374427183333333,-0.9837552486666666
551,1.7026427881843014,4.752939945066476,5.048046888985461,0.10170623749999998,-0.015899381143333335,-0.990634352
552,0.2463389582353095,6.515185769088628,6.519821064483644,0.1051548031,-0.010058049737666665,-0.9839777013333334
553,0.45910673580068717,6.374009951116468,6.390454725320905,0.10633807758620689,-0.014056367072413792,-0.9828297351724138
554,1.3887861308139753,5.859981632935754,6.021742408085118,0.09968071049999999,-0.02438141306666667,-0.9781567956666668
555,1.7395177902307377,4.205682422781229,4.550631817635837,0.07306257665517242,-0.0036719891713793093,-0.9983906520689655
556,-3.507540883597047,3.0183409402620494,4.626212193608129,0.06114106833333333,0.015237980689999998,-0.9831056213333332
557,-0.7539689108556717,4.253430624124094,4.3196176349066215,0.06007767123333333,0.03327208896666666,-0.9876343160000001
558,0.11226961748221227,2.8881209948652278,2.8903004464357727,0.05293032,0.02341961093103448,-1.000250346551724
559,-2.616542399477462,2.273418326213652,3.465707895354603,0.05752520103333334,0.031023311566666666,-0.9858425346666666
560,-2.081563290479249,3.1525708955706917,3.777199371143179,0.04723833466666668,0.02135851127,-0.9863143213333333
561,-0.560787988909868,3.8714728879827605,3.9118162955807376,0.056680271206896546,0.024073931113793103,-0.9775319844827585
562,0.5716714904923043,2.7662704916629566,2.8246781681929054,0.04113665163333333,-0.0009386739693333328,-0.9922844213333335
563,-1.305095806475116,-0.7740317944971505,1.5173320862513218,0.033209699716666666,0.004655893750000001,-0.992537195
564,-0.33137813438086694,3.809779825484563,3.8241432897279104,0.04243907172413793,0.014192226369896553,-0.9969891896551724
565,-0.16677702019135215,3.58505929230546,3.5889313722865936,0.05387587716666667,0.020390056416666667,-0.9873821063333335
566,-0.7992313316724322,2.2142824082993258,2.354038924212928,0.04261252183333333,0.0048791562153333344,-0.9957787836666665
567,-1.76554551984696,2.5121352923675935,3.0701753810957757,0.052188672827586206,0.0087938373,-0.9892078700000001
568,0.8353270018732235,4.369657082411991,4.44863134572123,0.06091228253333335,0.00032842657966666676,-0.9846063506666667
569,1.2519527201086165,4.1046965550689345,4.291064781449141,0.08828657346666667,-0.0023065826166666654,-0.9868356576666666
570,-0.007725949729470922,5.344836413130164,5.344841980842644,0.0863979414827586,-0.01093572005172414,-0.9858871079310346
571,1.4123244375636863,4.038088533840313,4.277559527409329,0.07176712036666667,-0.02829801847333334,-0.9789116633333332
572,1.9693040440745675,3.7211600524759234,4.209481659219467,0.06661468603333333,-0.010511289340333334,-0.9750476386666667
573,-2.7016043419858895,3.439482006289136,4.372634428253281,0.059972781166666676,0.012202157840666666,-0.9978708643333334
574,0.44767753158350265,3.5359307451404622,3.564122179323406,0.057494370586206905,0.0037409921451724147,-0.9927609944827587
575,0.2650794475147304,3.129914094871209,3.141107996402477,0.05738955576666666,0.0059842734353333345,-0.9830972729999999
576,-0.2900009134565699,3.632497916859862,3.6440401941259135,0.0684029164,-0.0037327415490000003,-0.9923774976666668
577,2.982307330708653,4.946635130098036,5.774187639157597,0.07902399790000002,-0.027888485756666668,-0.9834534273333334
578,2.3937655363681354,3.9355440845017577,4.605388703471967,0.0687145971724138,-0.04712028455172414,-0.9809986627586208
579,1.7577274218312646,3.794925754355913,4.181691953966647,0.06830366123333334,-0.045972242833333336,-0.991153072
580,2.6170997781359002,3.5832523584573375,4.436211853347261,0.06021334113793104,-0.04122225879310346,-0.9771853568965518
581,2.373021867245422,3.902366679358509,4.566288131619417,0.07310871126666667,-0.038781684766666664,-0.988594892
582,1.8700780630436644,4.372545769142899,4.7549506935206285,0.06647330889999999,-0.032293371833333334,-0.9968622106666667
583,2.5886303782763864,3.7947409694458787,4.592522624054191,0.07343545824137931,-0.0390797278275862,-0.9864328575862069
584,1.89345031975504,4.497049043159113,4.878651313283297,0.07342470559259259,-0.03387124359259259,-0.9792434474074073
585,1.5435016986684775,3.838212533843998,4.136509152902635,0.07499777293333333,-0.036743530633333334,-0.9766413589999999
586,3.4842266395254997,4.521627516894773,5.706113559228274,0.08016154726666666,-0.0503387314,-0.9911706033333333
587,2.3768404606119637,5.038348812458867,5.569538447669283,0.07824902506896554,-0.04591828396551723,-0.9880220496551725
588,3.4595616809235974,4.012141050706673,5.295872828877759,0.07548759758620688,-0.05260450365517241,-0.9863357541379313
589,3.4181587538117877,4.7022814569359275,5.811110903548945,0.08037131276666667,-0.04825604463333333,-0.988754119
590,1.0364596730636704,4.867251921904409,4.9761234455006935,0.08741766873333333,-0.022863274134833335,-1.0006509856666665
591,1.4790610198907945,5.709742469492916,5.8975871149858445,0.09042544599999999,-0.03332775655172413,-0.9646195772413793
592,2.0784978237090788,4.6423839451888576,5.085511080274723,0.09237711453333335,-0.035818520833333325,-0.9749506106666667
593,2.458479591704241,5.904755588019231,6.394438583578887,0.10745714743333333,-0.034946221400000005,-0.9867153756666668
594,2.2413578319173664,7.212009371165226,7.550510011176094,0.10679091062068967,-0.03636912555172414,-0.9848803482758621
595,2.509094136013307,5.356781370178592,5.913738562519307,0.10452732203333333,-0.03935984496666666,-0.9826622146666667
596,1.5824621958848326,5.953291818203544,6.159289834247381,0.10561826839999999,-0.0293984251,-0.9836782093333334
597,1.4350387825328708,6.2362783313961865,6.398622093511111,0.11399572506896553,-0.025027841551724137,-0.9862918586206896
598,0.31705134097463356,6.94126950327902,6.948471170519099,0.11206180500000001,-0.01783383165,-0.9840004303333334
599,2.5654619024532126,6.17337405436501,6.68331130354334,0.10105362560000002,-0.03455435046666667,-0.9720376953333333
600,2.6923282495270824,4.649659318378156,5.37140964678216,0.08927623726666666,-0.03999323596666667,-0.9776501383333335
601,2.6130742858361087,5.331090465891801,5.935399228479584,0.09488305444827586,-0.041479310241379304,-0.9918714510344828
602,2.1201987988754443,5.584149600509019,5.971911440115738,0.09617912096666668,-0.038658612633333346,-0.9954729253333334
603,2.0349601528881553,5.613256495606413,5.969627539185996,0.09825114975862066,-0.03563840941379311,-0.9750157665517241
604,2.4884265626307385,5.874709479293338,6.378303886317293,0.09434166851724139,-0.04174846448275862,-0.9792971668965517
605,2.5055136210798623,5.221442771232833,5.789963121309683,0.09680995483333331,-0.044801319066666664,-0.9943462090000001
606,3.3747617313697833,5.225570175793398,6.218038067365192,0.08519381146666666,-0.04926158446666666,-0.9822671310000001
607,2.971243552820724,3.3174546053508482,4.452406519567494,0.06205768662068966,-0.04651369362068966,-0.9873636779310345
608,2.049754475827979,3.0526596298881596,3.676444969749886,0.0591750268,-0.042571012433333326,-0.9854765996666666
609,2.414170494804881,4.036624518793681,4.7024365478374905,0.06532813953333333,-0.03857501626666667,-0.9931038089999998
610,2.774025153947641,4.209763553798137,5.040185526271503,0.061879424499999995,-0.040212308133333326,-0.9731176539999999
611,1.9523102221066688,3.006440286926204,3.5842292555575774,0.06605733120689655,-0.044479922,-0.9915915624137931
612,2.5688272174234097,4.067568706868231,4.809667066773024,0.07348795643333332,-0.03991655536666667,-0.9932805273333333
613,2.6686895243936855,5.60347895311563,6.204688239802373,0.09524598983333332,-0.037300377899999994,-0.9823417960000002
614,1.8115303720044391,4.9119764148941485,5.234607001465885,0.08676283810344826,-0.04294844831034483,-0.9888327944827585
615,2.69104964083695,5.403894356845922,6.035091846558098,0.09400615526666667,-0.03311624171666667,-0.9859297329999998
616,0.894440560892707,5.53471774224622,5.60630309314407,0.09311648553333332,-0.019623595100000002,-0.983257457
617,0.6284580743741716,5.359541761671861,5.396155556867797,0.08672276556666668,-0.011021806222,-0.9840091833333332
618,0.6290165104738583,4.207771749202643,4.254443945725258,0.082486836,-0.009159127895172411,-0.9836026679310346
619,1.2435555591156062,4.75731057597027,4.916795587468547,0.0853957364642857,-0.020878731410714287,-0.9777718210714286
620,1.3555799646172957,5.0394861628536525,5.218167929051623,0.07696554825,-0.019023873791666666,-0.9817326416666665
621,1.3612363755707229,3.5381045289768753,3.7906189684728795,0.06737283591428571,-0.02362655017142857,-0.9861726237142857
622,2.387587243000149,4.503083546051934,5.095742406136795,0.08156550102380952,-0.03919798561904762,-0.9915568723809522
623,2.990665286981245,5.758825141461285,6.486755842262242,0.1018974496875,-0.0426150903125,-0.977509826875
624,2.217425138153841,6.274700418115359,6.653507712431341,0.10309669866666665,-0.039963333899999995,-0.982874617
625,2.310899684634187,6.130184145093829,6.5497343546496305,0.1037264035666667,-0.03755024506666666,-0.9856006056666667
626,2.4698344338668545,5.079628995233203,5.646832778418866,0.08695594006666665,-0.0414998691,-0.986994373
627,2.494106072138762,4.387390934942206,5.045552461073929,0.08059826975862068,-0.04078745827586207,-0.9823398493103448
628,2.7301555830337487,4.678060361671151,5.414926162930137,0.08401680816666666,-0.04685987029999999,-0.9818735953333333
629,2.9253581229623298,4.893121555236687,5.699082396878583,0.08519549519999998,-0.0473018544,-0.989322452
630,2.9373232564372738,5.416185607141489,6.159319374869662,0.09298764359999998,-0.04937735263333334,-0.9895657966666668
631,2.8830643026810048,5.4268846284138474,6.143147465555247,0.0964045730689655,-0.046531914862068965,-0.9817364755172413
632,2.718184278151466,7.050572574353339,7.553923617520323,0.12709829183333332,-0.04399968709999999,-0.9897962946666667
633,2.321890830281841,6.74919643093184,7.135675720686509,0.10835723363333331,-0.042033835300000016,-0.982285549
634,2.051923163360891,6.795115466210212,7.09677550363689,0.12518865307142854,-0.034899166499999995,-0.9738287446428571
635,2.3743937716741566,6.826101381023434,7.225420662791817,0.10812090016666667,-0.03268198413333333,-0.9786017616666667
636,2.0677699168252457,6.062712860655992,6.404388229444619,0.11033837899999997,-0.03880472263333334,-0.9790431116666666
637,2.3662462713978027,5.971645283616173,6.421789292856974,0.10475997548275862,-0.039850176448275855,-0.9825204679310345
638,2.520721168541887,5.50974297287441,6.057367598795384,0.0909447119,-0.04033115166666667,-0.9853608969999997
639,2.469040821620082,5.541948938194242,6.06550368494631,0.11095194353333332,-0.04677785296666666,-0.9795491203333334
640,3.7257960390982636,6.444658545586958,7.440199692229364,0.10247944724137933,-0.05290745127586207,-0.9761855827586208
641,2.9945189787692597,6.082752409299991,6.77741103521535,0.09878133849999998,-0.05327415486111112,-0.9884297602777777
642,2.991637693413202,4.855822693770404,5.701532091241955,0.09707760041666667,-0.04852649554166668,-0.9869292995833332
643,2.67564759780722,6.271597949415798,6.816407535050413,0.10276028268965516,-0.04806250713793104,-0.9889604479310343
644,2.518923377493107,5.855695169264932,6.372756970581539,0.10150997083333331,-0.04011123306666667,-0.9842013283333333
645,0.897033910232474,6.156121617337536,6.2208845276661116,0.10980272810344827,-0.024627397017241374,-0.98556208
646,2.237389175591237,6.326145132123528,6.708625931183377,0.09409394288888889,-0.037684605740740736,-0.9845484292592594
647,4.5298292226002,4.891773460287515,6.663249803735469,0.0932539910666667,-0.04829922413333334,-0.9707700686666668
648,1.9744360491799688,5.771274566426788,6.098591098120191,0.10334586989655173,-0.04818729875862069,-0.9870038493103447
649,2.22812328369903,5.532413614396847,5.962943358344532,0.09429571343333336,-0.04608495680000001,-0.9856645633333334
650,2.8016807882706654,5.5804466322704265,6.242272006088548,0.09696329672413796,-0.04285935555172413,-0.9788603765517243
651,2.4746639653210525,5.7089578379647,6.220601164974498,0.10055299186666665,-0.042061917866666666,-0.9837480683333335
652,2.5293215947954626,6.079148716751297,6.582513904043546,0.1052996593448276,-0.042766711034482756,-0.9891030196551726
653,2.7250190005944006,6.288851884719914,6.85168136961683,0.10624545836666668,-0.04237365336666666,-0.976299761
654,2.511421465946277,6.116997806984132,6.610666774885906,0.1050073893,-0.044346442,-0.9828681403333334
655,2.7426717749935405,5.506510222038154,6.149855748289545,0.0944478584,-0.0424056021,-0.9801701199999999
656,2.2998872700342696,5.310299082028666,5.785637558489383,0.09512179364285714,-0.03940597889285714,-0.9827977517857144
657,2.1630378706641533,5.28592883190804,5.710209590804846,0.089710609,-0.03644508400000001,-0.993384931
658,2.1511985039665666,4.820948778244025,5.2780938809598466,0.08333845233333333,-0.0356857473,-0.9808928036666668
659,2.0361960145120106,4.445659138569124,4.888931880276119,0.07740804379310343,-0.03282392410344828,-0.9869257696551723
660,2.0316934357228336,4.066649398461414,4.545160195188433,0.07326513707142858,-0.036992965571428574,-0.9884416099999999
661,2.3262351973374806,3.8705704886542067,4.514914281540559,0.06842925696666667,-0.03316097983333333,-0.9849111003333333
662,1.89928938084291,4.311507888217784,4.710582606915754,0.07520962303571428,-0.03383597264285714,-0.9893864367857141
663,2.001666113923956,4.384112980001381,4.818639916111648,0.07417255143333333,-0.03371297756666666,-0.9812569853333332
664,2.449614097980917,4.028021876748272,4.7133511635836,0.07232045241379312,-0.03826599293103448,-0.9845888486206896
665,2.230021992025915,4.196087550098701,4.750921377478913,0.07423566406666667,-0.040479217666666664,-0.9835903933333333
666,2.4728891323239677,4.8300005586153345,5.424904770713758,0.08225936439999999,-0.03841812283333333,-0.9868291790000001
667,2.2013547709232375,4.79799535797243,5.277820420646042,0.0781092697586207,-0.037452269965517246,-0.9894154017241379
668,2.0496714549035753,4.080402929725516,4.565494024251545,0.07410550503333331,-0.0332277451,-0.9841181676666666
669,1.911316836260317,3.971042390097137,4.406411017028641,0.06670473933333333,-0.034373775,-0.9962095099999999
670,3.6256980381872146,2.403134104364603,4.3489111596322525,0.048502561,-0.06714543965517242,-0.9928120934482758
671,3.085073799679219,3.1618893962777084,4.4165098524618855,0.03232374566666667,-0.0518385072,-0.9887786273333333
672,3.172484754642421,1.19156298642567,3.3886620565318237,0.02932836642068965,-0.06775493965517242,-0.9849194793103448
673,5.501315952082153,1.1976498254182555,5.629780779370805,0.028667874723333334,-0.08413379573333336,-0.9980418610000001
674,5.251367371666583,2.0373517561113768,5.6316987818688915,0.0349584643,-0.08309379323333334,-0.989355853
675,3.777227075082334,2.157713487193775,4.349301611300558,0.04505545793103449,-0.07568558848275862,-0.9833379689655172
676,4.033205376160346,2.880707437846681,4.954947772122477,0.04304896323333332,-0.07621528979999999,-0.9842538203333334
677,5.018068122535172,1.8955630316164087,5.363298828229464,0.03608696206896552,-0.07252977489655171,-0.9840612855172413
678,3.8563657457836147,2.8597848798961163,4.799746955480677,0.049958424275862064,-0.07127499406896552,-0.9871143210344829
679,3.67196443604496,2.5779938040120456,4.485562633954942,0.033021496409666666,-0.06919345496666668,-0.9855395166666666
680,5.331636990272458,2.4556202035997603,5.868475634804176,0.057792889433333335,-0.07988637083333333,-0.9727733526666665
681,3.7561643732533874,3.8557948039718606,5.380949104419519,0.055184091172413796,-0.06653285879310346,-0.9889283720689654
682,3.1058329790667583,2.2748887573536662,3.8491878325020386,0.03993336043333333,-0.06395480426666668,-0.9852033046666667
683,4.490029349436777,1.7406904491534012,4.814993381082447,0.020731989800357144,-0.07644068253571427,-0.983227840357143
684,3.824400779836963,-0.016918732896867954,3.824438147376569,0.02088783615689655,-0.06674951006896551,-0.9879842296551723
685,3.722247477140033,2.616952119507927,4.54905770298482,0.03702735620689655,-0.058814263310344825,-0.983564808275862
686,3.5459665387812564,3.1103711545189534,4.715498925848623,0.05168475237931035,-0.060132691413793106,-0.9897852117241379
687,3.8930330539805476,3.397671332693503,5.165472090507491,0.05886903123333333,-0.06530000703333334,-0.9894796573333333
688,3.673394287115161,2.6854257550365532,4.549225434797291,0.04683047022857143,-0.06568426234285714,-0.9889443085714287
689,4.152479621844049,3.0893831488150973,5.174036679311104,0.05411173989655173,-0.07413764889655171,-0.9917068286206899
690,4.912265674395271,3.3155581751595187,5.92421524400374,0.05123285008333334,-0.08115434929166666,-0.9764456504166668
691,4.788548460739209,2.508510839769674,5.404457706023162,0.04535549366666666,-0.07976395639999997,-0.9815058390000002
692,4.568908535959141,3.0297726750891565,5.480417746698518,0.052555716533333345,-0.07834117066666665,-0.9750068273333331
693,4.357478582945735,3.7682948399931293,5.758495433019813,0.06087888734482759,-0.07740994648275862,-0.9880063986206896
694,4.6558272694111595,3.2340626111080715,5.666820318048268,0.05435934089655173,-0.08023007334482758,-0.9796747472413793
695,4.897265772300729,3.0924382636828085,5.789912090572033,0.05534675875,-0.08020386238888888,-0.993821813611111
696,4.06688458921439,2.869309866341613,4.975807062217313,0.047553905,-0.0720826053142857,-0.9884473382857142
697,3.5738128892159446,2.7292278817045474,4.49568231083086,0.03500607394444444,-0.07438072550000002,-0.983416935
698,5.046700281409559,2.8445047109738972,5.791325555688196,0.06159530127586208,-0.07133887920689655,-0.9837335386206898
699,3.2509351473714956,4.31816164660439,5.40324693396186,0.06638533120689656,-0.06703813355172414,-0.9827997075862069
700,4.324687009349096,3.9171458314322214,5.832477135007283,0.06946234446666666,-0.07568143763333332,-0.9865156783333334
701,4.084843141358756,3.4572657511772866,5.3496137273313575,0.05992691674999998,-0.06616146352777777,-0.9952203327777777
702,3.4093945995761117,3.376716916663209,4.797157958306631,0.057868398791666664,-0.07567217508333333,-0.9696435445833332
703,5.794842866276002,3.6109678555545957,6.824572598310842,0.05743836265517241,-0.0870741505862069,-0.9749619175862068
704,5.696368790891147,3.102199172981348,6.483866284586375,0.04948412039999999,-0.08868912616666669,-0.9814136703333332
705,4.341736647173588,2.523065716105165,5.0203930826236265,0.050511154333333336,-0.07599709122222222,-0.9905986211111112
706,3.499010194351978,3.1701261657019693,4.72019843818377,0.04992015662068965,-0.06376661306896553,-0.9821456731034482
707,3.498728450202849,3.043780281842077,4.636181478624738,0.0478756802,-0.0708358835,-0.9867710546666667
708,4.852705720160719,2.531618950428861,5.471975244452495,0.04835520648275862,-0.0698758486551724,-0.986685582413793
709,3.8139774077032618,2.7783434963510127,4.717436762170548,0.043727388533333335,-0.06734726603333334,-0.982864112
710,3.615294393302227,2.423510491813593,4.351546708219978,0.04198600673333333,-0.07976044056666669,-0.9842442986666667
711,5.746496351176097,2.2742188759298556,6.1787487525570794,0.04168781479310344,-0.08182508144827588,-0.9894506313793103
712,4.390560068421787,3.022438036205819,5.328626298574047,0.05382121699999999,-0.07577569923333333,-0.9870774596666666
713,4.157766044213123,3.693070618540532,5.558941785971518,0.05620459036666666,-0.07565504123333336,-0.9880943556666666
714,4.491914319648071,3.3839288330696613,5.621814026348961,0.06299111137931035,-0.07502778410344829,-0.9831291120689657
715,4.738933730161291,4.005571274223886,6.202054400510469,0.06697835336666666,-0.08321367573333334,-0.9788468243333333
716,5.265923450463356,3.8402244226234195,6.5142700208732425,0.06736989283333333,-0.08506877526666669,-0.9881554456666668
717,4.268129925107643,3.9489686440019343,5.812264724928058,0.06416550010344826,-0.07820729720689658,-0.9730958200000001
718,4.622665623025802,3.646423328551946,5.88528417246185,0.06412292503333333,-0.07804759593333334,-0.9805422886666666
719,4.726391957990512,3.901806332996421,6.1260358347212405,0.06655866066666667,-0.08100633576666667,-0.9963065293333333
720,4.530709760526344,3.055698351052494,5.46307144071011,0.04862076833333333,-0.08080841333333333,-0.9896700129999999
721,4.797749834582232,2.6053705312632154,5.458065975891738,0.05128724055263158,-0.08333826950000003,-0.9849224478947369
722,5.414020988016392,3.9890611863466585,6.721371033746242,0.06389152705882353,-0.08372624911764705,-0.97934777
723,4.723205148463665,4.041621246567557,6.2133999326409155,0.06486647726666667,-0.08474716099999997,-0.9806151526666667
724,4.935900882969797,3.136810301264128,5.846224271614186,0.05362779951724138,-0.07886322575862069,-0.9832728679310345
725,4.483608677033432,3.4693512871054395,5.666970989987731,0.06189428316666667,-0.0832037654,-0.9866522713333334
726,4.901642865558505,3.9184908206238784,6.272414549492156,0.06292260936666666,-0.0884885348,-0.9792190933333332
727,6.092064164219172,4.04627522477703,7.309160255210598,0.07352851120689655,-0.09591360831034483,-0.9822967193103448
728,5.623215565288163,4.563265908996901,7.237196948264731,0.07207471763333334,-0.09883288650000001,-0.9781484606666668
729,5.481994530369964,4.646786567846738,7.181847314154394,0.08806014990000001,-0.09841441013333334,-0.9888150529999999
730,5.401585351825809,5.504515659296494,7.706292367546743,0.08845977927586206,-0.08992872351724139,-0.9728009355172416
731,4.883035069377902,5.513011033354655,7.35959617238909,0.09328568603333333,-0.0874101354,-0.9833305123333334
732,5.012028133051205,5.2548910765671994,7.256982561677634,0.08967437996551725,-0.08764974617241379,-0.9829803331034482
733,5.000549029657687,4.94714434840142,7.029759909959144,0.08646758,-0.0836231256,-0.9842347106666666
734,4.902212348596179,4.883075736999909,6.9150469160552905,0.07845145686666669,-0.08864156143333332,-0.9738391663333335
735,5.4109643746547835,4.302572807850337,6.909093990834359,0.07440655249999999,-0.09261994739999997,-0.9823032859999998
736,5.739268201239906,4.049810525291407,7.020345777814568,0.06885319124137931,-0.09526062648275863,-0.989658281724138
737,5.355167683755569,3.4257234477655656,6.354463071059953,0.06025139673333334,-0.08894998439999999,-0.9849957770000002
738,4.507963106356526,3.7314629580872754,5.849512465210716,0.06934210546666668,-0.08384572056666668,-0.9933363350000002
739,4.9977953981577246,4.328796570102833,6.608242663782089,0.06826790863333333,-0.08371002636666665,-0.9734866676666667
740,4.270618214517466,4.393616925585561,6.1242365844537305,0.08233124289285716,-0.07050201910714285,-0.9831397846428571
741,4.190781071245868,5.073665387519948,6.577140741303784,0.08301060060000001,-0.07893650123333333,-0.9754393683333333
742,5.0729358132421485,4.743088211000385,6.940657019823068,0.08014127513333331,-0.08395229723333333,-0.9903652716666667
743,4.851818790353605,4.868776159066247,6.869382196297464,0.08704232931034482,-0.08057772344827585,-0.9865639979310344
744,4.696143089921928,4.938790782317516,6.811074957663362,0.0801275777,-0.08015506339999999,-0.9804532043333332
745,4.470501837927717,4.262964234024213,6.174248455620579,0.08059498531034483,-0.07472214934482757,-0.9862767358620691
746,4.148104571091369,5.086167144220458,6.559773680670146,0.085274296,-0.07216333858620688,-0.9795945893103447
747,4.078579097081455,5.277042252346157,6.665951070377067,0.08086692113333332,-0.07215590916666666,-0.9881383069999998
748,4.403536906642513,3.908652362183901,5.885456524014929,0.0757796951,-0.07672897419999998,-0.9878770760000001
749,4.501850739477924,4.204170624230807,6.156728833252231,0.07359839596428573,-0.07352876485714287,-0.980190115
750,4.283022220570415,4.800006588389932,6.4297271065025345,0.07698578860000001,-0.07963931053333331,-0.985622676
751,4.443258438860082,3.8518472658053016,5.877883098009276,0.06546091253333333,-0.06920215269999999,-0.9867830489999999
752,3.087239423690982,4.1500142520018,5.170782231606942,0.07591092224137931,-0.061489695965517246,-0.9845563741379312
753,4.058235328294511,3.6918250414181277,5.484162632459552,0.054631073700000005,-0.07026779733333334,-0.9838188379999999
754,5.069298013483535,2.7414810046770204,5.76141269335031,0.05645342946666667,-0.08095481849999998,-0.9858864986666668
755,4.4760586642110125,3.7654105796070767,5.846755881845032,0.05445004489655172,-0.08353161875862068,-0.9816632299999999
756,5.37982060996553,2.730531606116004,6.031280575513691,0.05400848796551724,-0.08325165144827586,-0.9896739427586209
757,4.630022284889405,3.8466445647569603,6.016772312919466,0.06694448441379311,-0.08068198058620689,-0.979982385862069
758,4.103335399977925,3.6429140894818834,5.485023438137973,0.053621885566666666,-0.07524720146666668,-0.9871167423333335
759,4.588149147439592,2.7487624353587443,5.347022325878741,0.05481604676666666,-0.08022993446666667,-0.987198982
760,5.118966162352912,3.2380469036697956,6.054819906280603,0.05491849489655172,-0.0795906849310345,-0.9809029596551726
761,4.384556706724955,3.6527252397786656,5.704443644693665,0.055931128133333334,-0.07871947823333333,-0.9893005983333333
762,4.5083093344021155,1.8179782317081736,4.86035737216907,0.03467039037931034,-0.0819981827586207,-0.9813113293103449
763,5.4823184040253325,2.449688819810668,6.003204390525249,0.04255039293333333,-0.08385033870000001,-0.984773613
764,4.51855856379161,1.1344069313685603,4.658495625692149,0.010587346642758618,-0.08176494562068966,-0.9854809865517242
765,4.179598108237017,0.3551012874602525,4.194629127961325,0.01839012146551724,-0.08475814896551725,-0.9900006382758622
766,5.2322997828222695,1.9945671080449021,5.59858847533258,0.027877257856666664,-0.08207016196666665,-0.9830987789999999
767,5.648756112446052,2.03439911315131,6.002816512464179,0.04092822226666666,-0.09203234153333334,-0.9827662843333335
768,5.569784254226953,3.819629989854074,6.750264454106548,0.061477729999999994,-0.0883786771724138,-0.9828829824137931
769,4.385985045269533,3.857253848593945,5.8383379502270305,0.05964864323333333,-0.08319794353333336,-0.9857814636666667
770,4.372764567590606,3.6403975121225973,5.687514121814431,0.07170969863333333,-0.07669960196666667,-0.9836486516666667
771,4.338846060680801,4.43924968993337,6.20441963394467,0.06993294008695652,-0.07602060386956523,-0.9833994230434783
772,4.548855336700475,3.4418244910500584,5.70204654585512,0.05645060022222222,-0.07598758319444446,-0.9852278902777779
773,4.870368094430812,2.6236738292963238,5.530602112607453,0.04632001153333333,-0.0857627337,-0.9832229523333333
774,5.128128504695648,2.4451208615477595,5.679818935895762,0.043356058166666656,-0.08530470399999998,-0.9851603926666667
775,4.766668783279166,2.6464846108669176,5.450581967676267,0.04630414879310343,-0.08268604465517243,-0.9838149448275861
776,4.6621453074576955,2.475506951428615,5.277328964571929,0.04245949436666666,-0.08108731266666667,-0.9856541673333333
777,4.300783296562165,2.186566966995083,4.823777386833101,0.03224537268965517,-0.076871126,-0.9844045120689654
778,4.532233329935252,1.6289425889509899,4.815501627010617,0.03410263820000001,-0.07578491026666666,-0.9871124420000001
779,4.14533454310793,2.6292140955432877,4.907595922811792,0.04332620033333333,-0.07167557976666666,-0.9848078073333333
780,3.6700700264839115,2.6182574117438056,4.5072504074074535,0.04603780039999999,-0.06312673016666667,-0.9850702330000001
781,3.345714131291722,2.9136887702351593,4.435508099896927,0.04913210811764706,-0.05980472229411765,-0.9866166291176471
782,3.566071938492055,2.8655465613484767,4.573578321484165,0.048207701875,-0.06261650708333333,-0.9850330208333333
783,4.124453980817134,2.7739346889845846,4.9691585396840265,0.04669107203448276,-0.07518067772413792,-0.9867798703448275
784,5.116507562692988,2.296278460405674,5.606917091036745,0.038078447900000006,-0.08379444513333337,-0.9821261759999999
785,4.355579161000795,2.7519919009259812,5.150721559542954,0.05153128113333332,-0.07423618143333335,-0.9878475329999999
786,4.027704099947241,3.5875077655925196,5.391790040068601,0.05908549114285714,-0.06878529048571431,-0.9864377765714285
787,4.086803900106337,3.166104048387688,5.168091682342885,0.05468330366666666,-0.07566920533333334,-0.9837596325
788,4.961052924177211,3.1896330816354928,5.895791910237362,0.0624386248,-0.08109425409999999,-0.985219404
789,3.945633202402117,4.275704539349389,5.815561180671001,0.0667565579310345,-0.06517110789655173,-0.9844371731034481
790,2.7108984638234017,4.060441381157111,4.880967717977629,0.0704401539,-0.05081703973333334,-0.9845677766666667
791,2.8523295729201332,3.844986468318093,4.78617657892328,0.0631893353,-0.044991043433333336,-0.98474345
792,2.2382001290495954,3.1299427482755253,3.8472193562559993,0.057104839100000006,-0.038696973200000005,-0.9874154896666667
793,1.9830258617113181,3.2816730648118693,3.8337277245162893,0.05736870341379309,-0.03658797610344828,-0.9855716600000002
794,1.9009958994784115,2.7683351965699874,3.357774919587953,0.046632010733333326,-0.036779844133333336,-0.9864575413333335
795,3.2731992837356056,2.7674369460297905,4.285347825837183,0.052964060827586194,-0.05181808293103449,-0.9874803237931034
796,3.1583651743122005,3.717631163295988,4.876683963211768,0.06276428863333335,-0.05299374293333334,-0.9863515179999999
797,3.0662645672053617,3.6771068264915137,4.786457856718819,0.0640041048148148,-0.052558751333333334,-0.9840959762962962
798,2.9894375910052426,4.368027163974804,5.291415229769064,0.072035268,-0.04941647783333334,-0.9859151983333333
799,2.249896660325214,3.7426265523317155,4.3660148934871525,0.062300340499999995,-0.04126245956666666,-0.9883984143333334
800,2.5310426791588116,3.2004561250052843,4.079513623985339,0.062423124766666664,-0.048157830566666664,-0.9843590833333332
801,3.383868694787958,4.149187110018239,5.352223177240088,0.07063294786206896,-0.05440410024137931,-0.9871091482758619
802,2.9165722275097936,4.015141980299588,4.961232425366555,0.06419065939999999,-0.04881711826666667,-0.9846204416666666
803,2.482211826866312,2.9719468618749234,3.8714746860982783,0.04474223776666667,-0.047961014366666666,-0.9873189766666667
804,3.4150082616438455,1.1938366675607477,3.6174354482499886,0.03831916224137931,-0.05270016365517241,-0.9880362865517243
805,2.8599770398167146,2.593804773981357,3.8602723325431536,0.0335345222,-0.05866687813333333,-0.9845392656666668
806,3.8680500360683676,2.2316767757558713,4.464820601794658,0.04545994743333333,-0.05466286206666667,-0.9857171116666668
807,2.2609755250252546,2.8886051541674975,3.667658346195764,0.043163368533333336,-0.047923309066666676,-0.9860152430000002
808,3.287016838867967,2.231343999809886,3.972141961006143,0.046534311629629635,-0.054413179555555545,-0.9890318666666666
809,3.0557123246729043,3.3673682377572693,4.5459642952854455,0.05863517913333334,-0.05037791216666666,-0.9854649706666666
810,2.8269335895811576,4.225183058126529,5.082246702827692,0.06248424643333333,-0.05572701753333333,-0.9854140920000002
811,3.4849449874719856,3.1481151249350994,4.695023255987609,0.059174715689655176,-0.05909990355172414,-0.9829469620689655
812,3.917598430907486,3.360172232687272,5.159528088115351,0.05528417527586207,-0.06452481893103448,-0.9894875824137932
813,3.7003906754953215,2.222839948640363,4.315905023737292,0.04680352753333335,-0.0625535606,-0.9851491683333333
814,3.5098939183569358,3.1910124515418015,4.742275048090341,0.05829067117857144,-0.061941721107142855,-0.9836790178571428
815,3.723226545169116,4.277591383913124,5.668723981021303,0.06295441343333334,-0.06499420736666667,-0.984466799
816,3.7993191933182833,3.741002559441285,5.3300470939109035,0.06627832643333334,-0.06453605233333334,-0.9866362133333335
817,3.481638310643653,3.630475338791879,5.028511241203848,0.0649583215862069,-0.05838882982758622,-0.9885384024137932
818,3.0255917885501806,3.914186834015446,4.945787729989448,0.06773886433333334,-0.05512360936666665,-0.9824859726666666
819,3.334431735623671,4.400163911550141,5.518877213203448,0.07383956603448275,-0.05848078827586207,-0.9868128296551726
820,3.545622377204598,3.830475939246553,5.217781539911515,0.06798763251724138,-0.05872729544827587,-0.9859560403448275
821,3.319896751708549,3.9863493748114913,5.186029492806684,0.065590702,-0.057153830896551724,-0.9824783062068966
822,3.198151143898633,4.028787859383861,5.142220949985424,0.07046686516666666,-0.05580413933333333,-0.9871483543333335
823,3.1885465385481035,3.2933916826021474,4.5828000087127085,0.053428039833333336,-0.05687155516666667,-0.986913443
824,3.4694781293173667,1.8726743129012067,3.942067970233256,0.038788097034482764,-0.058646227172413794,-0.9867900258620689
825,2.9043527429634,2.7049680350611367,3.968103825244883,0.0516804336,-0.0507590412,-0.9857905866666669
826,3.2725541599540127,3.9991105612074005,5.165761822012298,0.06445705332352941,-0.05793483914705882,-0.9863206685294117
827,3.277642891814475,4.130388144465726,5.2710937176857735,0.07430797970833333,-0.05734015220833333,-0.9851857433333334
828,3.5806242969477706,4.254155183729167,5.558338939069206,0.06566944568965517,-0.06365260037931035,-0.9837287662068965
829,3.6407263900206526,3.09237939955568,4.775439513074234,0.05883870523333333,-0.056777698099999996,-0.9880869936666666
830,2.986574943605602,3.4716860693871525,4.578352702365928,0.06463071418181819,-0.051525692121212115,-0.9837671675757578
831,2.2309894699208086,4.833974640010225,5.322857163094383,0.07951835341666667,-0.044835560791666666,-0.9867817025000001
832,2.907962112584341,4.668996876241911,5.4988222404576685,0.07590049730000001,-0.05607467963333333,-0.9854509013333334
833,3.7555033491257492,3.8756701355908167,5.394728959231266,0.07135441565517242,-0.060676974827586216,-0.9843513772413791
834,3.9656343034167083,4.090579686272726,5.694941656723331,0.07013436686111112,-0.0636592585,-0.984863075
835,3.2068804011128855,4.42598681723788,5.463787410943115,0.07197506875,-0.05533139333333333,-0.9836464370833333
836,2.7277559986755837,3.703885067973614,4.598809429031609,0.06693885679310345,-0.046507836758620684,-0.9861306389655172
837,2.3465477311535072,3.87157996623599,4.5262604569438905,0.06818761737931034,-0.04396326593103448,-0.9869643768965518
838,2.918884726790929,4.0359567783975665,4.9794313393111205,0.0634809053,-0.05186583606666666,-0.9824558173333334
839,3.443566769075457,3.101723297881584,4.633276433457982,0.06307434339285714,-0.05552001885714286,-0.9883689824999998
840,3.3346000392808337,3.622111260417244,4.92183167741887,0.05920235386666666,-0.0604890526,-0.9831268200000002
841,3.660735155753017,3.7752058423060864,5.2567819868093135,0.0682838106,-0.06359486065714286,-0.9864060645714285
842,3.8469244608266657,4.579563954305366,5.978268689528199,0.07734913854166667,-0.06996479795833334,-0.9802500620833333
843,4.539611000000064,4.49467277268045,6.384970082587182,0.0754059379,-0.07290506503333333,-0.9828410016666668
844,4.022798642783582,4.684242406724263,6.17162479870085,0.08235885460000002,-0.06868068545714286,-0.985053888
845,3.55895104029779,4.853844984609602,6.01627965459514,0.08450013137500001,-0.06090768820833333,-0.9812848124999999
846,3.450258312258196,4.8362895276847935,5.9384919164039855,0.08086227268965518,-0.06358506355172414,-0.983816126551724
847,3.3913131642623084,4.004515279210117,5.245799279889125,0.06804585717857144,-0.056171704892857145,-0.9871339689285717
848,3.5287265399258914,4.14243335314213,5.439665062106043,0.08300648723333333,-0.054096614800000005,-0.9872049056666667
849,2.582000658266736,5.850733529950522,6.393326114475033,0.0962282535,-0.0545334813,-0.9823759013333334
850,3.2953347414003393,5.819674437971557,6.6850925877281,0.10196259856666666,-0.060932045399999996,-0.9820803546666667
851,4.327989333826771,6.527422695939307,7.826723429367931,0.1089702015862069,-0.06636286468965517,-0.9793296300000001
852,3.6961453177603385,6.238873273639802,7.247825774408979,0.10416701031034481,-0.06108381706896551,-0.9863303137931033
853,3.618853212101372,5.285688104163453,6.402922353036534,0.09054033163333333,-0.061171784933333334,-0.983707963
854,3.7949453702850797,5.5088945201517445,6.686188022799799,0.09927017823333333,-0.0652720348,-0.9781991736666666
855,4.035287332665219,6.244908019577317,7.430872506864772,0.10386075037931035,-0.06905315955172414,-0.9803430127586207
856,3.9449165365686314,6.638473675253426,7.717640634620857,0.12189335710344829,-0.06415361279310346,-0.9828326068965517
857,3.1203067517723984,6.856691742790138,7.53020605422658,0.11377714606666668,-0.06291053329999999,-0.9716634676666666
858,3.679123458141464,6.486596432149217,7.453454701437053,0.11608172677777777,-0.05946251544444445,-0.9959572096296297
859,3.4463588978230946,6.217293490945553,7.105312221218544,0.10735140853333335,-0.06153321203333333,-0.97835956
860,3.8858135858613583,6.943240758539099,7.9519891352157615,0.11811707153333334,-0.0671325837,-0.9838522430000001
861,3.882008631344027,6.50918597469501,7.574601234222135,0.1109902226,-0.06503918235,-0.98238854875
862,3.9852074964832926,6.0842219608805435,7.269104173332904,0.10311263700000001,-0.06291772372222221,-0.9760457811111112
863,3.1141583375963786,5.378627303139654,6.21281769728687,0.09445630720689654,-0.05348541517241379,-0.9835893265517242
864,2.6439872171150824,5.094415940345313,5.73805783087561,0.08547190673333332,-0.051126863266666676,-0.9829443933333333
865,3.1830044110952302,5.278872020549325,6.161924799667199,0.09829076499999999,-0.05203782803333334,-0.9868459033333333
866,2.903152551725715,6.121066121761408,6.772270711693152,0.09609359149999999,-0.05721932628571429,-0.9861607264285714
867,4.137821890287098,5.453729966484818,6.84200135498833,0.1053916332,-0.0656613158,-0.9812731269999999
868,4.128898066929274,7.815129425755647,8.832788642080367,0.12737011944827586,-0.06435327503448275,-0.983132821724138
869,2.8252571549045786,6.87322749022522,7.428660877054021,0.1218555645,-0.057597079999999995,-0.9772322526666666
870,2.261175205412598,8.2343480938505,8.53710420451294,0.15189381310344824,-0.033107479896551724,-0.9885278937931034
871,1.2007482364434805,10.172770431885962,10.242649661981511,0.1595312623333333,-0.01732557266,-0.9776806313333334
872,0.8089290132804957,8.743486389701443,8.78053716432486,0.15083173586206897,-0.019153118,-0.9715199434482761
873,0.3969838474971152,7.918797272053134,7.928678431703536,0.14088974566666668,-0.0037734534193333323,-0.9808572003333335
874,0.021426942249957434,7.2743524827617625,7.2743838699791326,0.12675635727586207,-0.004343419528275863,-0.9790210537931036
875,0.27147138444068,7.814322008454487,7.8190068199719445,0.13921706033333334,-0.0052137428193333325,-0.9839110266666666
876,0.5156372715325265,8.187315574067892,8.20342647514734,0.1348243876666667,-0.0069885112266666665,-0.9839809796666666
877,0.8390354777993315,7.126933303135112,7.1758988469312355,0.1252856761,-0.017272095093333332,-0.9823269136666667
878,1.6497455955551574,7.045047121988158,7.234681654014131,0.12373046127586207,-0.01321324294827586,-0.9874832855172414
879,0.3719851487432745,6.959632262426616,6.969517412358939,0.12154572563333335,-0.011933307603333334,-0.9755006036666667
880,0.34814617344719356,7.022491432412845,7.031072758506676,0.12234366126666667,-0.010651417166666668,-0.9811768383333332
881,1.3488095860032812,7.576315325222279,7.694753075683544,0.12634802553333332,-0.014660604306666667,-0.9798987643333333
882,0.5316397527467789,7.336402480280504,7.355535046019736,0.12631035706896554,-0.015327149896551723,-0.9847414189655171
883,0.618758066779078,6.838316067234059,6.866120339958991,0.11986082333333334,-0.011825595623333334,-0.9802325136666669
884,0.6865900649548976,6.798183814999586,6.832605275518001,0.1154200472,-0.01085139347,-0.9822634303333333
885,0.6135158800035977,6.646489727832356,6.674618905178665,0.11606432835714285,-0.01180507845357143,-0.9843427467857143
886,0.7137495169341185,6.722255706207416,6.759868376033074,0.11957775863333332,-0.005086388815466666,-0.9827077563333333
887,-0.154500288644903,7.333685230776293,7.33530359991728,0.12629521880000003,-0.004114146207666666,-0.9832790296666667
888,0.04024123053081367,7.490878940814179,7.490986412044829,0.12483826237931032,0.004250809182758621,-0.9831375903448276
889,-0.35234616099299026,6.838880896557544,6.847908410045048,0.12008484453333332,0.0017824333086666664,-0.9909765656666667
890,-0.171407076559935,6.617877777194735,6.620087302114757,0.11566475703448276,0.0014973484448275863,-0.9865029313793102
891,0.06996090452901184,6.926256624327606,6.926608224016211,0.12261957827586206,-0.0010927013624137932,-0.9737698824137931
892,0.461716880090538,7.53504001831642,7.549091343884682,0.12381364983333333,-0.004763839294,-0.976497951
893,0.3263038555658056,6.729291716564142,6.737161953588462,0.11760275836666666,-0.0060138282699999995,-0.9865268890000001
894,0.2568565916330246,6.2012132950663394,6.206509794122838,0.10842755137931034,-0.0026310238000000004,-0.985691108275862
895,-0.35065585173449876,6.083417583862474,6.093477383658151,0.10647267719999998,0.005409121913333332,-0.9767530876666667
896,-0.4337580303086411,6.077430646890558,6.092832112234265,0.10604264587878788,0.005241394276666666,-0.9869284945454545
897,-0.5969370735589213,6.1023688076936455,6.131385694378198,0.10768090230434782,0.011580812860869568,-0.9860476082608693
898,-0.5909180305771469,6.571189774241026,6.59758946965499,0.11249273293333333,0.0093413353,-0.9777253680000001
899,-0.5976896068959833,6.580975010503613,6.607941631051733,0.11156998929999999,0.007574113226566667,-0.969355756
900,-0.3987907416886332,6.509839939246079,6.521990890097231,0.10955795426666666,0.011587393295333332,-0.986165728
901,-0.2894563985530328,6.173614508053584,6.180370263972522,0.11049621485294119,-0.0025683838255882354,-0.9937502373529414
902,0.6564605636430215,6.785277028403711,6.816810715691398,0.11439014191304349,0.0018072813513043476,-0.9815886169565218
903,-0.25865021648089975,6.43633400959808,6.441507104107098,0.1095108573,0.005128086246,-0.9778337623333334
904,-0.9106421712280673,5.415923969263424,5.491723793193989,0.09668700866666666,0.012420489366666666,-0.9897886076666667
905,-1.076052199492271,5.575613898737864,5.678177639345311,0.09853893496666664,0.015059414006666666,-0.9856194536666667
906,-0.9184427829793586,5.6834188201148494,5.756910464719373,0.09758256413793104,0.014869376486206896,-0.985888457586207
907,-0.2697786375328127,4.8769062755883725,4.884344324666118,0.09045852839285713,0.000799358903607143,-0.9853589885714287
908,0.7908359441907344,5.760721812229831,5.814570351842279,0.09504808972413793,-0.003058149613793104,-0.98380819
909,-0.6157666692116426,5.392773711617831,5.427711907858779,0.09638150703333333,0.006573505703333332,-0.982809185
910,-0.6652826175805181,5.6516607225082796,5.6905565154825135,0.10255647782758621,0.00801345321896552,-0.9931381231034482
911,-0.03162196976621244,6.786744095852248,6.786817419861309,0.10964469546666668,0.0050727387094,-0.9793240683333332
912,-0.3338400652419536,6.372328355567724,6.381031104571771,0.10879791241379312,0.006705289800000001,-0.9741814103448275
913,-0.39540106845131506,5.823503225019989,5.836865004237287,0.09848393429629629,0.0044787887388888885,-0.9861163159259259
914,-1.0294794951789383,5.107777412165629,5.210221587411184,0.0962392966,0.01620435556666667,-0.9958353586666667
915,-1.0098102390865817,5.6248737563856634,5.714511646657816,0.09550422363333334,0.01458520018,-0.9894874356666666
916,-0.5233197541310068,5.080589479722464,5.107400009634023,0.08697551263333335,0.0069027965033333335,-0.9926576666666668
917,0.44186328569763755,5.618392551125602,5.63568556794881,0.10231340834482756,-0.004378448136586207,-0.9780591268965517
918,-0.24481723090356713,5.894935480219617,5.899998996593358,0.10071573462962961,0.0035535819933333332,-0.9869900762962963
919,0.034095095074385434,6.154845009555808,6.154939081114864,0.1048527205,0.00201387863685,-0.983443103
920,0.10384689972236932,6.365586439574627,6.366429964344204,0.10931017,-0.002530782933066667,-0.9814670650000001
921,0.8107349625389036,5.9288917841638105,5.983870085849952,0.09742239672413794,-0.014148273279310343,-0.9820472520689655
922,1.15075509597628,5.45670844271003,5.57636961614834,0.09793878257142856,-0.022949331107142857,-0.9918868367857144
923,1.2371776604688733,5.975136918234564,6.101419247117561,0.10497986586666666,-0.012103347923333336,-0.9816961493333333
924,-0.18392995133372966,6.340295474275547,6.342951893771566,0.10319801885714286,-0.007150196681071429,-0.9800358625
925,0.9371244318193942,5.509529602677568,5.58841749691149,0.09646569476666667,-0.01017023202666667,-0.9876901876666669
926,0.5933697654342339,5.380534843941462,5.413058957860988,0.09664100186666666,-0.009564888956666663,-0.987229788
927,0.11434061366889275,5.91340184771917,5.9145032534513575,0.09826918744827585,-0.008505326968965518,-0.9823350393103449
928,0.881021943875803,5.311315634636419,5.383683567926809,0.09310342703448275,-0.014569585210344831,-0.9861100399999999
929,0.7016482825582561,5.400170127399112,5.445428272819782,0.09485792120689655,-0.012725266744827586,-0.985169015862069
930,0.7526485693371888,5.552941370017765,5.6035580626274815,0.09341920163333334,-0.011309403723333333,-0.986671163
931,0.4790431249127431,4.818143655608912,4.841843596452198,0.08623201571428572,-0.00719419952,-0.984817991714286
932,0.34699966442388047,4.646350812984491,4.659261806519614,0.07900384570833334,-0.014067672241666667,-0.9896072145833333
933,0.831104130072744,4.076296326434244,4.160019231192361,0.07156701839999999,-0.008213983353,-0.9864762140000001
934,0.418485744224696,4.13592943835281,4.157010746084636,0.07148994427586207,-0.0229046308137931,-0.9858237537931033
935,2.615184838633655,4.387054433901529,5.106081255976997,0.07766650763333333,-0.03174035753333334,-0.9845640683333335
936,2.0165089230305635,4.705226614769572,5.118234055046792,0.0798427157586207,-0.03392694606896552,-0.9875231324137931
937,1.6516805200563534,4.513145137603208,4.805297366643538,0.07538874076666666,-0.0357383092,-0.9860041629999999
938,2.5002113853052093,3.686046567220991,4.453017942454306,0.07543073404166667,-0.03994648691666667,-0.9882234295833334
939,2.70201630574985,4.936152206502048,5.625692512408131,0.08109684344444443,-0.04782167108333333,-0.985475822777778
940,3.1370563030949055,4.910401417330401,5.824865108715208,0.08668727382142859,-0.04800262014285713,-0.9838160403571429
941,2.4568730510737953,4.62444139318744,5.235319346450865,0.08039076423333333,-0.04591140593333333,-0.9854336219999998
942,2.2702978720894063,5.647835161968222,6.085687123844484,0.10403092510344826,-0.039614299034482756,-0.9874613562068966
943,2.1777764490149654,6.092619736300263,6.468758334676339,0.09393032777142858,-0.03546075588571429,-0.9823162785714287
944,1.039935144537166,3.993335041494869,4.126310473815733,0.0763200350869565,-0.029928703565217388,-0.9876622147826088
945,1.8989603455757686,4.035613817042342,4.4594017081719795,0.07575800340000001,-0.033087513,-0.9861172459999998
946,2.6826351970738846,4.095795226762634,4.894875462031707,0.06782221389285716,-0.03270804278571428,-0.9825852103571429
947,1.9447785582580128,3.9405696813922853,4.393664455177551,0.06248841728571429,-0.035447788785714286,-0.9867004742857144
948,1.230560546455861,2.2155077211148244,2.534166313038672,0.05362795743333334,-0.029771272416666664,-0.9902340423333336
949,2.075401009185359,4.468844319354267,4.926369890147568,0.071681766375,-0.036967283633333334,-0.9874897595833333
950,2.102241431820875,4.363482295953802,4.842607627847362,0.07679708189655174,-0.02259608056896551,-0.983869532413793
951,0.9020343341332393,5.142686527211281,5.220986918672023,0.08750092324999999,-0.02243003763333333,-0.9831588763888889
952,0.29785178393723694,5.423199733420062,5.431348445496635,0.09427577343333336,-0.0016575229040000005,-0.9861995520000001
953,-0.8821062212608942,5.184102581050297,5.258412917323517,0.08605313673333331,0.0003123155766666678,-0.9883128773333334
954,1.4279603018860056,4.801664662886606,5.009019673293954,0.0829068322413793,-0.023858938079310346,-0.9852221158620688
955,2.729244079670019,3.9680942450269905,4.814834408851323,0.07301386136666665,-0.026069066666666665,-0.9856619493333331
956,-0.8454347213844501,5.461052120546,5.5259102729248895,0.09225199889285714,0.001017878698571429,-0.9864113114285714
957,-0.34525826225368245,5.878670584271361,5.88876494002298,0.10015572444827585,-0.01663971986551724,-0.9856660055172413
958,2.3024886486600313,5.6428587502129455,6.093123606462059,0.10647095610344828,-0.008645658673103447,-0.9860149958620688
959,0.4064898294875871,6.655619132139599,6.667964917026164,0.10955281473333334,-0.025647584700000003,-0.987116373
960,1.7340916722690536,6.188943903543931,6.426382766969704,0.10658019058620691,-0.020137059286206894,-0.9818870258620691
961,0.7847582098351716,6.527600556965739,6.574400935307283,0.1148246256666667,-0.012682822803333334,-0.9820978146666667
962,-0.37828733783598445,6.09063525942257,6.1023274042336055,0.11074723300000001,-0.011496408908,-0.9874899893333333
963,1.5433674097562802,6.479138358290329,6.659658728840796,0.11392286503448276,-0.01970401082758621,-0.9790196879310346
964,1.5310651456359805,6.741543633549509,6.912433921402514,0.11260018283333333,-0.024112077700000005,-0.9779856166666665
965,1.5634844343481404,6.228165326660632,6.420661238269286,0.1086771996,-0.026048942600000003,-0.9774902229999999
966,1.2285582442968657,6.197892934201392,6.318017105618805,0.10968294619999999,-0.0237138693,-0.9872286743333334
967,1.4734389965498182,6.317320669751614,6.486197484442755,0.108064032875,-0.026853560874999998,-0.9851424145833333
968,1.4995038855302303,6.064648311100456,6.246604443523786,0.1030046176,-0.02538962528571429,-0.9862321268571427
969,1.2776215338098873,5.820160621779979,5.958268870802679,0.10601741906666667,-0.020715879833333336,-0.9862505716666666
970,0.7637346049018094,6.122267020172888,6.169539881254189,0.10679550396666664,-0.0202184782,-0.983739983
971,1.8770431009074984,5.873504593125887,6.165143609514897,0.09989089888461539,-0.027340593423076924,-0.9828794992307693
972,1.7280450584798348,5.685864327594369,5.941833332124574,0.09935950833333335,-0.0288864023,-0.9842906849999999
973,0.9044994135986615,5.614917348385199,5.6870726466949,0.10070096765517239,-0.01567696138137931,-0.9805952820689656
974,0.5808697455923548,5.939352554568204,5.967588205557601,0.09819908335714286,-0.012283523966785717,-0.9886656114285713
975,0.3637521928808517,5.333718005130896,5.346071546623466,0.09766153576666667,-0.005346689751,-0.9829465463333332
976,0.0780208891421695,5.995432806413872,5.995938588875676,0.10025575468965514,-0.005426019039310345,-0.984472375862069
977,0.29348989642339235,5.449620825967008,5.457494256596188,0.09594422672413792,-0.002182221475172414,-0.985222433448276
978,0.20862945579243602,5.429091122179515,5.433086260701321,0.09542674523333333,-0.005089746265666666,-0.9840299353333334
979,0.2149818747897878,5.364454518271424,5.36874793205345,0.09286312606896553,-0.0014887224841379312,-0.9858780572413792
980,-0.04883270790698637,5.284845874658552,5.285070840180225,0.09175707993333335,0.0026769136456666668,-0.9837016540000001
981,-1.1750739972945377,5.208762458569348,5.339306987850161,0.092278591,0.022640203666666667,-0.9875172213333332
982,-1.7232086967641866,5.548786557281178,5.809405368930424,0.09342225227586207,0.018446942655172414,-0.98215632
983,-0.9250323059185601,5.525941742302578,5.6025942272568,0.09664401536666666,0.02266685201666667,-0.987127488
984,-1.3074781370179311,5.353296887854976,5.510200461792279,0.0906951283448276,0.020439761410344825,-0.9813367310344827
985,-1.2621331203679904,4.556739306875916,4.727948079879289,0.08198170803333332,0.01478183536,-0.9879378193333334
986,-0.02187990687754786,4.723396940945258,4.723447502307511,0.08024022089999999,0.008366223154000001,-0.9878766006666666
987,-0.5725200789364011,4.419840152240927,4.45669336818918,0.0783640389,0.007538130288333333,-0.9853384813333332
988,-0.7581041370886842,4.56471669244306,4.627109667718643,0.07853293510344826,0.010085193793103448,-0.986739424137931
989,-0.3987146082675503,4.391244510330989,4.409273216579078,0.07573222779999998,0.007069884744666668,-0.9867191399999999
990,-0.9011269304921031,4.507999104720115,4.5970000373109565,0.07858338676666667,0.01802656105,-0.9865452090000001
991,-1.4019181682939104,4.780553404459937,4.981415698901231,0.08174275148275863,0.024828475034482756,-0.9852702910344828
992,-2.112727978437407,4.239401093834091,4.735820067263428,0.07292180676666667,0.027031778793799994,-0.9910349096666666
993,-0.18076225318974615,4.311970379185684,4.315750436694984,0.08043684641379312,0.0061081588620689655,-0.9909977682758621
994,1.0732116516075039,5.343590389527643,5.449990831911238,0.08684617244827587,-0.0018463337931034487,-0.9780733779310345
995,-0.4102492390616899,6.056710893960469,6.070537366252003,0.09875518086206897,-0.010200106303931035,-0.983870135862069
996,0.6290893124118142,4.706213472710011,4.747979378931601,0.0814020068275862,-0.01934583429310345,-0.9923834334482761
997,1.3914673738096481,4.055556966573047,4.287247251640271,0.08217091389655172,-0.02379328789655173,-0.9866526286206898
998,1.7045939628705191,4.732579315684778,5.029546315837246,0.08124010759999997,-0.021397387643333328,-0.9861080306666667
999,0.864301756051942,4.971442049130287,5.045827773043944,0.08103974453333333,-0.024778140666666667,-0.9821618253333334
1000,2.3045019057591527,5.163089181878051,5.6527722959473525,0.09184143796551723,-0.032908726,-0.9866371934482758
1001,1.8604221455394823,5.337024822500314,5.651104983735589,0.08803587620689655,-0.023933800827586206,-0.9874316575862068
1002,0.7949637848664599,4.746160360566925,4.812126289310538,0.08772211568965518,-0.02390589282758621,-0.9852458210344828
1003,1.5395544007756001,5.39994338982971,5.6144985576553665,0.09429542776666668,-0.025583987699999994,-0.9828955683333334
1004,0.7860367126638069,5.276584568063078,5.334646256370833,0.08915640320000001,-0.008964627766666665,-0.9872354223333333
1005,-0.3712617925171524,5.201590484759648,5.214786669243476,0.09374343086206895,0.004927437870655174,-0.9825481034482758
1006,-0.5935936920413389,5.597378924516076,5.628666150727998,0.0954197256,-0.002727791075333334,-0.9881606150000001
