index,solo_roll,solo_pitch,solo_tilt,solo_acc_x,solo_acc_y,solo_acc_z
0,2.52,4.266666666666667,4.954099323445928,0.7954199000000001,-0.4268097,-9.919105666666667
1,2.585,4.035,4.790866092523724,0.7060027,-0.45665445,-9.9867955
2,2.733333333333333,4.073333333333333,4.9041372849871285,0.8067332666666666,-0.3472832333333334,-9.887735333333334
3,1.79,4.08,4.454781930746097,0.6753601,-0.40315500000000004,-9.7415375
4,2.723333333333333,3.956666666666667,4.802078775758448,0.7634069666666666,-0.4037697333333334,-9.770671666666667
5,1.9250000000000003,4.62,5.004197212490058,0.7445253000000001,-0.4566353999999999,-9.7444885
6,2.0533333333333332,4.54,4.981862037006052,0.8202300333333333,-0.39643663333333334,-9.902195
7,2.99,3.49,4.594468252961982,0.6114344,-0.37296189999999996,-9.758433499999999
8,2.013333333333333,3.526666666666667,4.060266995359199,0.7190646333333334,-0.3934722666666666,-9.751057333333334
9,1.7149999999999999,4.0649999999999995,4.41140715620897,0.6830433499999999,-0.46219335,-9.877998999999999
10,2.1733333333333333,5.116666666666666,5.557975477523721,0.8123716666666666,-0.3442629666666666,-9.853684333333334
11,2.6,4.61,5.291266782251533,0.8655412,-0.44171669999999996,-9.7846335
12,2.9966666666666666,4.433333333333333,5.3494414443276685,0.8050590666666667,-0.46099266666666666,-9.759264666666667
13,2.06,4.300000000000001,4.767140561920734,0.709479,-0.43227134999999994,-9.8265135
14,2.44,3.9333333333333336,4.627672675581211,0.7767455333333334,-0.47699716666666675,-9.771071
15,2.75,3.795,4.685452048567039,0.7408403,-0.49445409999999995,-9.757079000000001
16,2.7099999999999995,4.546666666666667,5.291583267931179,0.8007409999999999,-0.47221106666666657,-9.742423
17,2.49,4.625,5.2514046620356245,0.7260586,-0.4795822,-9.7474775
18,2.68,4.173333333333333,4.958467792534443,0.7840708666666667,-0.5223102,-9.925476
19,3.45,4.145,5.390987689742743,0.7662577,-0.416273,-9.771504499999999
20,2.12,4.836666666666667,5.279873357162906,0.6860653666666666,-0.4147583666666666,-9.788555
21,2.235,4.24,4.792045733432398,0.6219775,-0.39333205,-9.942896000000001
22,2.3466666666666662,4.21,4.818820307490355,0.7252670999999999,-0.34863873333333334,-9.988313333333332
23,1.44,4.78,4.991711810362756,0.76008235,-0.35892565,-9.941199
24,2.0166666666666666,3.606666666666667,4.13153909595926,0.7068338666666666,-0.2617391666666667,-9.944868999999999
25,1.39,4.619999999999999,4.824138326663784,0.7585661499999999,-0.38953534999999995,-9.8974235
26,3.0433333333333334,4.386666666666667,5.337285353542292,0.7460064666666666,-0.38237766666666667,-9.822595666666667
27,2.42,4.025,4.695464505308453,0.79126225,-0.39073835,-9.7821535
28,1.0433333333333332,5.34,5.440679251960751,0.8046080999999999,-0.3737228666666666,-9.782776
29,2.53,4.05,4.774173686707494,0.7429393499999999,-0.40464954999999997,-9.9435855
30,3.6633333333333336,4.406666666666666,5.728197233384973,0.7077881333333332,-0.4686598666666666,-9.766567
31,2.085,4.205,4.692700866572406,0.6348254,-0.40351430000000005,-9.800328
32,1.7966666666666666,3.6999999999999997,4.112605306263335,0.7173574666666666,-0.3702327,-9.737138999999999
33,1.87,3.9,4.324522782855211,0.7477881500000001,-0.4239009,-10.000644
34,2.0533333333333332,5.22,5.608288962576246,0.9502065000000001,-0.2614418333333333,-9.960739666666667
35,1.2149999999999999,4.869999999999999,5.018921013973591,0.83001305,-0.29784255000000004,-9.836979
36,1.7733333333333334,3.393333333333333,3.8282821670507845,0.7019959666666667,-0.3618653,-9.940028
37,1.9949999999999999,4.175,4.626402784808417,0.5860545500000001,-0.23852489999999998,-9.922756
38,1.5766666666666669,4.493333333333333,4.761388833814933,0.6130291,-0.21337683333333332,-9.915719333333334
39,0.645,3.335,3.396730789409338,0.4921431,-0.20727285,-9.988399999999999
40,0.18333333333333335,2.4933333333333336,2.5000601998487695,0.5497925333333332,-0.11909087,-9.920652666666667
41,0.775,2.755,2.861850280945464,0.5944649,-0.1794794,-9.764897
42,1.1466666666666667,2.876666666666667,3.0966030633636645,0.6561079666666667,-0.1623082,-9.644118999999998
43,0.625,2.29,2.37371375183435,0.49901895,-0.25544275,-9.741911
44,0.93,2.1166666666666667,2.311878948319853,0.5166416333333333,-0.1890720766666667,-9.890703333333335
45,0.10500000000000004,2.885,2.88690849886693,0.47897345,-0.16302319999999998,-9.7822955
46,2.3333333333333335,3.356666666666667,4.087227012839191,0.5683457000000001,-0.18419566666666667,-9.969099666666667
47,0.99,1.9900000000000002,2.222567402173575,0.45785555,-0.17355759999999998,-9.778155
48,0.5033333333333333,1.7966666666666666,1.8658168482222157,0.38235379999999997,-0.24080966666666667,-10.071773666666667
49,1.68,1.87,2.5136224289980227,0.43883819999999996,-0.26212935,-9.8178275
50,2.5566666666666666,3.856666666666667,4.626072406716347,0.6908617,-0.4271088666666667,-9.806378333333333
51,3.02,2.64,4.010429341198679,0.2520413,-0.4568549500000001,-9.748262
52,1.89,2.6300000000000003,3.2382851404537307,0.5783237333333333,-0.4922957666666667,-9.722114333333332
53,2.585,3.31,4.198915162570697,0.49668755,-0.4543829,-9.8635635
54,2.4233333333333333,3.6266666666666665,4.360895510567356,0.7103958333333334,-0.41808930000000005,-9.916074666666667
55,1.68,4.07,4.402561855781408,0.7371878000000001,-0.38611399999999996,-9.995981
56,2.36,3.6233333333333335,4.323276189160591,0.659066,-0.40354616666666665,-9.995356
57,3.085,3.395,4.586077498863584,0.6002667500000001,-0.41199189999999997,-9.9558355
58,2.2466666666666666,3.5866666666666673,4.231441048015029,0.6828947666666666,-0.4098411,-9.681952333333333
59,2.96,3.745,4.772226097744825,0.63554055,-0.6557551500000001,-9.8208065
60,4.426666666666667,2.7266666666666666,5.197623297152413,0.5880113333333333,-0.6702429333333333,-9.700021999999999
61,4.575,4.1850000000000005,6.1973864126583145,0.6248573500000001,-0.58825495,-9.7183825
62,2.526666666666667,3.7066666666666666,4.484920545579774,0.6546947,-0.6198072,-10.26669
63,1.885,2.14,2.8515210759812617,0.50414885,-0.27103425000000003,-10.007059000000002
64,1.6199999999999999,4.003333333333334,4.318194690091647,0.7063283666666665,-0.2581583333333333,-10.067687333333334
65,0.91,4.1,4.199605461470616,0.67718945,-0.38567945,-9.713369499999999
66,2.716666666666667,2.823333333333333,3.917335000247862,0.6559128666666667,-0.4233087,-9.857466666666665
67,2.91,4.67,5.500748696781751,0.6704759,-0.37504405,-9.8626325
68,2.6633333333333336,4.336666666666667,5.087874757448496,0.7171177000000001,-0.4601342,-9.643806333333334
69,3.115,3.93,5.013272387425043,0.7977814999999999,-0.50652465,-9.9208555
70,2.6599999999999997,4.359999999999999,5.106029309599398,0.7446079000000001,-0.5290232333333333,-9.849487333333334
71,2.59,3.4749999999999996,4.333070128103824,0.58770185,-0.45052695,-9.902691999999998
72,1.9849999999999999,4.185,4.631138060077309,0.77272675,-0.4233072,-9.853474
73,1.96,3.8866666666666667,4.352227360962569,0.7910290666666667,-0.38263396666666666,-9.850791666666666
74,2.7199999999999998,4.695,5.42446824839873,0.7896882000000001,-0.47523035,-9.9257655
75,3.035,4.484999999999999,5.413651727514214,0.7919243499999999,-0.38799425,-9.9788125
76,2.3233333333333337,3.98,4.60755813580783,0.7060500666666667,-0.42805340000000003,-9.846385333333332
77,2.2199999999999998,4.18,4.732024132139621,0.7758112500000001,-0.39239395,-9.771019500000001
78,2.7733333333333334,4.013333333333333,4.877052089662288,0.7356135333333333,-0.442667,-9.716977
79,2.9699999999999998,3.7199999999999998,4.758875886555507,0.6906302,-0.48003694999999996,-9.880927
80,2.54,3.3533333333333335,4.205838253291283,0.7248829333333333,-0.3660208333333334,-9.766660666666665
81,1.96,3.0700000000000003,3.641815840031659,0.78846175,-0.42181145,-9.959929500000001
82,1.9233333333333331,3.203333333333333,3.7358667201550735,0.7283626999999999,-0.4424403333333333,-9.886406333333333
83,3.74,3.9349999999999996,5.426768814409632,0.91008295,-0.25256285,-9.931159
84,1.2033333333333334,5.09,5.229942612565002,0.7354170666666667,-0.2618777666666667,-9.962189333333333
85,0.415,4.9,4.917499864454085,0.7951107,-0.34920455000000006,-10.0529255
86,2.1133333333333333,3.0,3.6690728031661393,0.8141585,-0.2648180333333333,-9.512997333333333
87,1.9649999999999999,4.615,5.015086782255541,0.68810485,-0.46992140000000004,-9.6681575
88,2.8366666666666664,4.55,5.360247463154874,0.6808166999999999,-0.4589936333333333,-9.810893666666667
89,2.4400000000000004,3.1449999999999996,3.9797793556520276,0.70934725,-0.36266125,-9.7661225
90,2.413333333333333,4.56,5.158049453838099,0.7491507000000001,-0.40050813333333335,-9.840983666666668
91,2.35,4.76,5.307295684239615,0.7405773,-0.37620005,-9.869473
92,2.736666666666667,4.476666666666667,5.245439953218153,0.7871327333333333,-0.3573319333333333,-9.873377666666668
93,2.8550000000000004,4.265000000000001,5.130905070360412,0.8020995,-0.37636365,-9.83356
94,2.2733333333333334,4.793333333333333,5.303963151677061,0.8051836333333334,-0.4057702000000001,-9.900831333333334
95,2.56,4.484999999999999,5.162889901481897,0.8981889000000001,-0.38635155,-9.700457
96,2.243333333333333,4.553333333333334,5.07491762056558,0.7272488333333333,-0.46947126666666666,-9.767073333333334
97,2.14,3.8200000000000003,4.377809014282304,0.8049600000000001,-0.44881570000000004,-9.9199095
98,2.5233333333333334,3.7133333333333334,4.488556240796152,0.7337130666666667,-0.4685025666666666,-9.81613
99,2.34,3.6,4.2928302670031675,0.7174562,-0.42178275,-9.791771
100,2.2733333333333334,3.1333333333333333,3.870486880108852,0.6588615666666667,-0.3932429,-9.803419666666665
101,1.8050000000000002,3.575,4.004300260209614,0.75642495,-0.35163015000000003,-9.7660085
102,1.8233333333333333,3.6733333333333333,4.1004104292196235,0.7104044666666667,-0.2855198,-9.675563333333333
103,1.675,4.17,4.4932804502881885,0.75542685,-0.42181979999999997,-9.884214499999999
104,3.026666666666667,3.706666666666667,4.784067618499519,0.711663,-0.46406580000000003,-9.734588666666667
105,2.825,3.27,4.320284338728644,0.72764795,-0.5210092,-9.77323
106,3.3333333333333335,2.5833333333333335,4.216300540784532,0.7410171000000001,-0.39367726666666664,-9.907271333333334
107,0.86,4.365,4.448751910239791,0.7249321500000001,-0.34895729999999997,-9.811073
108,0.8266666666666665,4.61,4.683375112667604,0.7591067666666667,-0.36962986666666664,-9.724821333333333
109,2.91,4.26,5.157527262891463,1.00559245,-0.40974365,-9.721070000000001
110,2.8166666666666664,4.640000000000001,5.426403697473863,0.8865044000000001,-0.39223973333333334,-9.423751000000001
111,1.3399999999999999,4.33,4.532226848337547,0.8468017,-0.24596274999999998,-9.4252825
112,1.7400000000000002,4.829999999999999,5.133159299253414,0.798568,-0.3733470666666667,-10.061179333333333
113,3.5,2.77,4.4624379175023945,0.63495105,-0.5462833,-9.934632
114,3.1633333333333336,3.27,4.548484196033352,0.7165082666666667,-0.5399964,-9.815945333333334
115,3.24,4.745,5.743571167356034,0.78799945,-0.43644055,-9.7581325
116,1.75,4.743333333333333,5.055166766946395,0.7377294,-0.427148,-9.579308333333335
117,2.965,3.84,4.850119173571068,0.6639553,-0.49050889999999997,-9.837017500000002
118,2.393333333333333,4.316666666666666,4.9346542430731555,0.7940103333333334,-0.41520660000000004,-9.690135
119,3.0300000000000002,3.5999999999999996,4.704127229091151,0.72995095,-0.48582654999999997,-9.7121525
120,3.223333333333333,4.78,5.763172469836291,0.8120338333333333,-0.4295662,-9.882083333333334
121,2.72,5.01,5.699090425232384,0.7318898,-0.40088595,-9.926874000000002
122,2.483333333333334,4.233333333333333,4.906814456655179,0.8331749,-0.4377102,-9.757306000000002
123,2.7199999999999998,5.165,5.835715077959933,0.8300302500000001,-0.46451485,-10.02484
124,2.2766666666666664,5.113333333333333,5.596036046022741,0.7654781,-0.5005691666666666,-9.787654333333334
125,2.915,4.8149999999999995,5.626849363280308,0.849896,-0.43332670000000006,-9.8707695
126,3.2999999999999994,4.536666666666667,5.607902624454593,0.8133213,-0.46367129999999995,-9.888048999999999
127,2.665,3.885,4.7100488911099045,0.7113120499999999,-0.5166472,-9.8412665
128,2.29,4.576666666666667,5.116524069497933,0.716186,-0.3936789666666667,-9.795842666666665
129,2.255,4.965,5.451927564350047,0.7744125500000001,-0.42128535,-9.766816500000001
130,2.623333333333333,3.763333333333333,4.586355277392825,0.7544651666666667,-0.4507858333333334,-9.737173666666665
131,2.415,3.975,4.650106318424499,0.82837205,-0.4801344,-9.752685
132,2.6199999999999997,4.273333333333333,5.011291550649993,0.8166994333333334,-0.4689429333333333,-9.639546333333334
133,2.445,4.125,4.794091846441458,0.80453755,-0.5540213,-9.922336000000001
134,2.936666666666666,4.13,5.066159001212313,0.8390481666666667,-0.5604621333333334,-9.857071
135,2.785,4.1,4.955096316326442,0.74391395,-0.4497723,-9.894058000000001
136,1.6966666666666665,3.9066666666666663,4.2586687481173495,0.6909383,-0.4136225,-9.823503333333333
137,1.95,3.855,4.3194658170603715,0.7583382,-0.3969577,-9.812863499999999
138,2.466666666666667,4.49,5.121726535888552,0.853478,-0.3935939,-9.871439333333335
139,2.325,4.6,5.153057769760882,0.7389254,-0.4983348,-9.819734
140,2.7099999999999995,3.82,4.682479407422099,0.8056496666666666,-0.4585398333333333,-9.946537333333334
141,2.175,4.26,4.782207007821186,0.7794246499999999,-0.4130611,-9.772675499999998
142,2.59,3.8366666666666664,4.627967203565898,0.8446969666666666,-0.40124776666666667,-9.803829666666667
143,0.625,4.32,4.364892265922976,0.71007595,-0.3110149,-9.855593500000001
144,2.3466666666666667,5.93,6.375897221523539,0.7740178666666666,-0.3179734,-9.766733666666667
145,2.1849999999999996,4.48,4.983461703259006,0.84592265,-0.32976384999999997,-9.842073
146,1.6666666666666667,4.373333333333332,4.679575329062577,0.7637876333333332,-0.3120344666666666,-9.802934666666667
147,1.79,4.984999999999999,5.295869671805137,0.8065229999999999,-0.2576371,-9.688442
148,2.08,4.29,4.7668030550337015,0.8986135333333333,-0.41498336666666663,-9.707572333333333
149,2.26,4.619999999999999,5.142073938707962,0.8366473999999999,-0.3737397,-9.6471695
150,2.0966666666666662,4.48,4.945447188128463,0.8295550666666666,-0.4148334,-9.718910333333334
151,2.7,3.74,4.611641965709945,0.71038775,-0.4024818,-9.861435
152,2.81,3.53,4.510765475899788,0.7646543333333332,-0.40146599999999993,-9.753459666666666
153,2.665,4.08,4.8720236652564335,0.6371889,-0.4582135,-9.7849525
154,2.6166666666666667,4.566666666666667,5.261832573928527,0.6610245666666666,-0.40788823333333335,-9.714852666666665
155,2.015,3.71,4.221214090281915,0.55617195,-0.46857379999999993,-9.810095
156,2.2566666666666664,4.256666666666667,4.816885075278039,0.6917753333333333,-0.3521008333333333,-9.983486666666666
157,2.46,4.6,5.215226796387803,0.83299235,-0.32977205,-9.965189500000001
158,2.25,3.7866666666666666,4.40385862320898,0.5500500666666667,-0.33140963333333334,-9.908414
159,2.17,3.46,4.083475723946562,0.61647475,-0.3210451,-9.8742325
160,0.5433333333333333,3.456666666666667,3.499056630448987,0.6745273333333334,-0.09474497,-9.752930333333333
161,1.025,3.7249999999999996,3.863258897046688,0.6488497,-0.03073832499999999,-9.645041500000001
162,1.24,3.186666666666666,3.4191897617369005,0.6153536666666667,-0.13262166666666667,-9.905749333333334
163,0.8300000000000001,2.605,2.7339440819732266,0.67316,-0.22194265000000002,-10.0067375
164,1.9400000000000002,5.81,6.124278747665315,0.6650482000000001,-0.18066815333333333,-9.938758333333332
165,0.615,3.63,3.681659789623523,0.7180659,-0.26127845000000005,-9.907888
166,1.2833333333333334,3.6633333333333327,3.881328464498651,0.7970729666666667,-0.3342154,-9.951985333333333
167,2.12,5.015000000000001,5.443633032579315,0.9175095499999999,-0.27162185000000005,-9.8279755
168,1.9233333333333331,4.8,5.170159789294287,0.7854772666666667,-0.3019639,-9.900357666666666
169,1.96,4.79,5.174625132441898,0.7776289000000001,-0.19662055,-9.740294
170,1.0566666666666666,3.5966666666666662,3.748478163601845,0.608332,-0.2536817,-9.798009666666667
171,1.5750000000000002,4.115,4.405630847932679,0.9386597,-0.2377633,-9.9037385
172,1.78,3.3000000000000003,3.748985930321957,0.7221284666666666,-0.3281842666666666,-9.898992333333334
173,2.15,4.29,4.797703380287055,0.8346091,-0.3463614,-9.9023855
174,1.4666666666666666,4.34,4.580676287201255,0.7343841333333332,-0.25010573333333336,-9.883864333333333
175,0.81,4.83,4.897289564154349,0.7283801999999999,-0.2161133,-9.897719500000001
176,0.32,4.38,4.391651221347107,0.8236194333333334,-0.21039546666666667,-9.996864333333335
177,1.495,3.6100000000000003,3.90693825716121,0.99531965,-0.25091680000000005,-9.838721500000002
178,0.36000000000000004,5.403333333333333,5.415277156157793,0.99819,-0.15487969000000001,-9.770672666666668
179,0.92,5.505,5.581112689643035,0.8208571,-0.1167055,-10.0181435
180,0.7933333333333333,4.206666666666666,4.280688135018453,0.9250876333333333,-0.12648266666666666,-9.731687333333333
181,0.9450000000000001,6.05,6.123087739506702,0.9274411,-0.1903472,-9.627697
182,1.32,6.166666666666667,6.305826226273762,0.9685059333333333,0.027868659,-9.688837666666666
183,-0.825,5.14,5.205612176664501,1.110832,-0.0268656276,-10.1834375
184,1.7300000000000002,6.446666666666668,6.673812245144465,0.9933945333333334,-0.3147758,-9.793664666666666
185,3.265,5.855,6.701052850813651,0.9943066999999999,-0.33119595,-9.929997499999999
186,2.3233333333333337,4.95,5.466894904900557,0.8602333333333334,-0.3756905,-9.787799666666666
187,1.67,4.67,4.958993951868161,0.87392545,-0.3696294,-9.9782685
188,2.1533333333333333,5.376666666666666,5.790662212265608,0.8962711999999998,-0.43701873333333335,-9.957668333333332
189,3.2,4.59,5.593405070835621,0.93146045,-0.39824195,-9.859869499999999
190,2.5366666666666666,4.736666666666666,5.371780080990356,0.8600713999999999,-0.4136832000000001,-9.695217666666666
191,2.63,4.72,5.401818563855774,0.9417331499999999,-0.45125360000000003,-9.788957499999999
192,2.0366666666666666,5.3,5.676810042738104,0.7922342333333333,-0.47205613333333335,-9.896365
193,3.615,3.365,4.9372479539562155,0.8738351000000001,-0.47168195,-9.911347
194,2.51,3.9766666666666666,4.701473916766828,0.6713546666666668,-0.4938459,-9.888088666666667
195,2.24,4.725,5.227986625867675,0.7262778000000001,-0.43552155,-9.931418999999998
196,2.1199999999999997,4.496666666666667,4.970430456666907,0.6682931000000001,-0.4075168333333333,-9.813673333333334
197,2.6550000000000002,4.715,5.409651420740642,0.6688372999999999,-0.41934194999999996,-9.74532
198,3.0733333333333337,3.7900000000000005,4.878083113232192,0.6015362666666667,-0.40698539999999994,-9.781213
199,1.495,4.405,4.651305673233113,0.6259808499999999,-0.34716020000000003,-9.864287000000001
200,1.95,3.9433333333333334,4.3984510421086895,0.7533678666666668,-0.29006649999999995,-9.845369333333332
201,1.805,4.135,4.5111629627622545,0.7106005500000001,-0.29280085,-9.953416
202,1.6033333333333333,4.096666666666667,4.398746769790323,0.6870014333333333,-0.28100053333333336,-9.716955
203,1.915,3.725,4.18780149193823,0.63492355,-0.39019514999999994,-9.900385
204,2.793333333333333,3.4599999999999995,4.445764550221988,0.5865906666666667,-0.4146043,-9.822774666666666
205,2.545,2.675,3.6916043458314904,0.64501295,-0.4184694,-9.828197499999998
206,1.3366666666666667,2.94,3.229351226382448,0.5878719666666666,-0.4144398999999999,-9.980281333333332
207,-0.07,3.21,3.210762350627292,0.63633975,-0.43720655,-10.0698175
208,2.8466666666666662,2.0433333333333334,3.5036104097803427,0.5519255333333334,-0.25167803333333333,-9.931163333333334
209,-0.26,2.99,3.001272833901695,0.5827361,-0.30840344999999997,-10.105290499999999
210,1.57,2.1266666666666665,2.6431948450764473,0.6170691333333332,-0.28326283333333335,-9.763014333333333
211,2.7649999999999997,3.395,4.377476325853485,0.81430985,-0.38869675,-9.723942
212,2.42,3.7566666666666664,4.467723017651405,0.7231023333333333,-0.4267322666666667,-9.633787333333332
213,2.37,3.33,4.086498925038588,0.74332435,-0.35854535,-9.796557
214,1.6900000000000002,3.33,3.733869740942665,0.7109456,-0.4020937,-9.903751
215,2.07,3.9050000000000002,4.418969081659618,0.5703543,-0.3991203,-9.8864995
216,0.93,2.5233333333333334,2.6891544866076966,0.5608034000000001,-0.40991740000000004,-9.744488666666665
217,2.27,4.390000000000001,4.941144748849783,0.57463965,-0.37629585,-9.6837175
218,3.2066666666666666,3.456666666666667,4.713679505034537,0.8213010666666668,-0.4346349333333333,-10.070175999999998
219,1.835,3.16,3.6536844344090214,0.5686335,-0.36295655000000004,-9.8295785
220,1.5,4.323333333333333,4.575690007315074,0.5604775666666667,-0.26061046666666665,-9.957938
221,1.8650000000000002,3.505,3.96974934160872,0.48693220000000004,-0.28380649999999996,-9.673005999999999
222,2.046666666666667,2.33,3.100876474544199,0.6152966333333334,-0.23771836666666668,-9.937788333333332
223,1.4300000000000002,1.7200000000000002,2.2366684294143924,0.39776435,-0.28449349999999995,-9.7696315
224,1.9266666666666667,3.23,3.7604535589531065,0.6626534666666667,-0.3506745,-9.887628000000001
225,1.6549999999999998,3.63,3.9890173074309323,0.63376745,-0.3307857,-9.742542
226,2.0666666666666664,4.176666666666667,4.6591937909984225,0.7899362,-0.3661254333333333,-9.913297
227,2.5250000000000004,4.175000000000001,4.878007829495311,0.5647869,-0.33943670000000004,-9.9148245
228,1.3,3.26,3.509383968074782,0.6963512333333334,-0.3362909666666667,-9.943102
229,1.68,3.01,3.446723501105022,0.7563557999999999,-0.2699934,-9.9725205
230,1.66,3.77,4.118801019966201,0.754613,-0.2695265,-9.790229666666667
231,1.505,3.81,4.096069496864151,0.6341491,-0.22810795,-9.7540735
232,1.55,2.72,3.1303505901843853,0.5955575666666667,-0.3129902,-9.918152333333333
233,3.155,1.8399999999999999,3.651876527029454,0.48607,-0.26609914999999995,-9.6981215
234,1.7433333333333334,2.0866666666666664,2.7188315491668966,0.3484772333333333,-0.2743910666666666,-9.813706000000002
235,0.705,2.86,2.9455410578292858,0.53961645,-0.2308133,-9.917394
236,0.9833333333333334,2.6166666666666667,2.7952131458367546,0.37038763333333335,-0.21970573333333332,-9.852702333333333
237,1.97,2.4699999999999998,3.159018102541214,0.42607395000000003,-0.21908005,-9.830459999999999
238,0.9566666666666667,2.376666666666667,2.5618802797479976,0.5297498333333334,-0.14001850000000002,-9.885722666666666
239,0.25,2.8499999999999996,2.8609348899355944,0.46673230000000004,-0.2307345,-9.805084
240,1.7533333333333332,3.3433333333333333,3.774727192536928,0.4720210333333333,-0.23250023333333333,-9.839677666666667
241,1.905,3.34,3.8445432836755775,0.49386434999999995,-0.23533395000000001,-9.871586
242,0.36999999999999994,2.81,2.83423538555067,0.6048548333333333,-0.31648956666666667,-10.101506666666667
243,2.62,2.9699999999999998,3.9596906227336017,0.4774115,-0.36901510000000004,-9.656065000000002
244,2.4,2.9033333333333338,3.766219987137426,0.6919605,-0.40979173333333335,-9.965148999999998
245,1.9,3.605,4.0744643351584555,0.5341334000000001,-0.3984102,-9.6989535
246,2.6333333333333333,3.313333333333333,4.231416959234464,0.5286277,-0.42070293333333336,-9.829634333333333
247,1.94,2.8,3.4059658273005944,0.26126315,-0.3809509,-9.704446
248,1.8266666666666669,2.0566666666666666,2.7504827862431585,0.3947624333333333,-0.3964663,-9.792770666666666
249,2.5949999999999998,3.02,3.9809781163159794,0.5948165,-0.43636465,-10.030397
250,2.3133333333333335,2.9,3.709034907123072,0.6427023666666667,-0.4109520666666666,-9.8258
251,2.635,3.125,4.0868034953193515,0.65763135,-0.4347717,-9.838978000000001
252,2.8699999999999997,3.0066666666666664,4.155644473499082,0.5292216000000001,-0.4048634,-9.757747333333333
253,2.55,3.24,4.1222768562997425,0.55644435,-0.4123425,-9.811544999999999
254,2.5733333333333337,2.8066666666666666,3.8071149102418778,0.5910085999999999,-0.4103058333333333,-9.899372333333334
255,1.9849999999999999,3.72,4.215813852151506,0.6671331,-0.43877560000000004,-9.9480805
256,1.6433333333333333,4.4366666666666665,4.730661214821168,0.6762212333333332,-0.41533440000000005,-9.969385666666668
257,2.4000000000000004,2.4699999999999998,3.4434475362534087,0.56482455,-0.43294509999999997,-9.850475
258,2.7266666666666666,3.546666666666667,4.472589378426863,0.6624454333333333,-0.40461826666666667,-9.871569333333333
259,1.505,2.965,3.324789867593805,0.61489765,-0.38011490000000003,-9.887068
260,1.7999999999999998,3.44,3.8819718842041473,0.6212988666666667,-0.3568093666666667,-9.847969333333333
261,1.92,3.7800000000000002,4.239038770856334,0.65735555,-0.29537985,-10.032634999999999
262,1.26,2.7566666666666664,3.030773146050223,0.6386831333333333,-0.32297793333333336,-9.811727333333334
263,1.76,3.41,3.8369312669466282,0.38319384999999995,-0.20591225000000002,-9.707163
264,0.7566666666666667,3.4233333333333333,3.505862815519737,0.7687792666666667,-0.15819830000000001,-9.931447333333333
265,0.73,2.66,2.7582815444853157,0.5449158,-0.16727264999999997,-9.9560785
266,2.02,3.1533333333333338,3.744301021440072,0.4271969,-0.2240546,-9.863388666666667
267,1.55,3.3449999999999998,3.6862982392413386,0.6986161499999999,-0.19770554999999998,-9.941902500000001
268,1.7133333333333336,3.8333333333333335,4.1982822707243885,0.45022200000000007,-0.23124943333333334,-9.830777666666668
269,2.41,3.395,4.162610375689916,0.48860514999999993,-0.18914799999999998,-9.856876
270,1.3233333333333333,2.626666666666667,2.9409797432737665,0.5310190333333334,-0.2931686666666667,-9.759336333333332
271,2.175,4.0200000000000005,4.569820473664006,0.742825,-0.35742615,-9.9336095
272,2.273333333333333,3.6333333333333333,4.285116751273596,0.45367656666666667,-0.3526096333333333,-9.75238
273,1.8250000000000002,3.755,4.17443167883146,0.5652267,-0.35444005,-9.889472999999999
274,1.9033333333333335,3.0833333333333335,3.6229993404883345,0.5943402,-0.3405482333333334,-9.915809999999999
275,1.65,2.605,3.0832853755207643,0.59184065,-0.34477145,-9.946853
276,1.2666666666666668,2.9466666666666668,3.207159808490849,0.4336312666666666,-0.2914837333333334,-9.811525333333334
277,1.565,2.505,2.95341991151461,0.5945219500000001,-0.28164435,-9.91129
278,1.0566666666666669,2.3433333333333333,2.570434382966682,0.6099519666666667,-0.27869743333333336,-9.976758333333335
279,1.135,2.755,2.9794726053099394,0.28895819999999994,-0.16972095,-9.774317499999999
280,1.09,2.4033333333333338,2.6388281873513995,0.4494044,-0.1866184,-9.737281333333334
281,0.10500000000000001,1.75,1.753146192253261,0.4955687,-0.21331315,-9.851122
282,1.1266666666666667,2.91,3.120318268312336,0.5377446666666666,-0.23349886666666664,-10.028392666666667
283,1.645,3.045,3.4605637878165503,0.2578572,-0.1595334,-9.866564499999999
284,0.6900000000000001,2.5366666666666666,2.628776647772405,0.38827056666666665,-0.21626196666666667,-9.856466666666666
285,0.17,2.65,2.6554433508653204,0.37966120000000003,-0.13839275,-9.872216
286,1.3266666666666667,2.3699999999999997,2.715868273455679,0.5771058333333333,-0.18314713666666668,-9.884625000000002
287,1.205,2.24,2.5434003068831745,0.41118070000000007,-0.1560332,-9.8653505
288,0.3166666666666667,1.7733333333333334,1.8013763812581882,0.37576610000000005,-0.26388550000000005,-9.716912333333333
289,3.135,1.97,3.70206036949911,0.26721005,-0.4107197,-9.7387755
290,2.4066666666666667,1.71,2.95202039638097,0.4187195666666666,-0.3322254666666667,-9.891190666666668
291,1.365,3.33,3.598614530088463,0.5385918000000001,-0.32035009999999997,-9.962819
292,0.8633333333333334,2.35,2.503482861817902,0.3796313333333334,-0.2919346666666667,-9.954437666666665
293,1.825,0.835,2.0068916729676016,0.5120648499999999,-0.08949517500000001,-9.7269915
294,-0.43,1.7766666666666666,1.827945616697803,0.4090374666666667,-0.08948383333333333,-9.716323666666666
295,-0.14500000000000002,3.8499999999999996,3.852725443953683,0.55439275,-0.09528840000000001,-9.919974
296,0.37666666666666665,2.643333333333333,2.670016519709141,0.5652056333333332,-0.12706681333333333,-9.777261999999999
297,0.97,3.215,3.3579960199061865,0.34429509999999997,-0.074180895,-9.859444499999999
298,-0.12333333333333334,2.99,2.9925402754863635,0.5284862333333333,-0.18884323333333333,-9.822947
299,2.355,3.0300000000000002,3.836893709040096,0.67526255,-0.20047303499999997,-9.917722000000001
300,0.9933333333333332,2.686666666666667,2.8642914622296987,0.5926796333333333,-0.16408083333333334,-9.848387666666667
301,0.22000000000000003,2.19,2.2010171347071306,0.57070775,-0.350033,-9.8827195
302,1.2866666666666668,3.676666666666667,3.8950116616527,0.48986263333333335,-0.24084973333333334,-9.709013666666666
303,-0.185,2.7,2.7063258603113,0.6219492,-0.14667275,-10.020624
304,-0.96,2.04,2.254508931814219,0.3781782333333334,-0.1421056601,-9.761791
305,-0.09499999999999997,2.125,2.127121496657465,0.12145503500000002,-0.053291,-10.056695000000001
306,0.8566666666666668,1.5466666666666666,1.7680150693831158,0.3516857666666666,-0.19785316666666666,-9.850496
307,2.37,2.4050000000000002,3.3760369374758357,0.49287525,-0.152418445,-9.717310999999999
308,1.4666666666666668,2.0566666666666666,2.525879029351587,0.4309445333333333,-0.31184613333333333,-10.022382333333335
309,1.165,2.335,2.609348293540807,0.480228,-0.23828014999999997,-9.857506
310,0.9266666666666666,2.81,2.958736640141241,0.42275766666666664,-0.19839843333333332,-9.903858666666666
311,1.01,3.16,3.317328060286938,0.6328965500000001,-0.2825473,-9.838887
312,1.8333333333333333,3.48,3.932858594275976,0.6786260666666667,-0.2503979,-9.828142666666666
313,1.875,3.6550000000000002,4.107295892321789,0.48695524999999995,-0.29733325,-9.7504345
314,1.18,3.2566666666666664,3.4636365167949856,0.6037728,-0.2265488,-9.840845999999999
315,1.345,2.81,3.115072118656162,0.5581244,-0.16611594999999998,-9.871754
316,0.7966666666666667,3.9233333333333333,4.003277398871154,0.6259862333333334,-0.1746107,-10.023470333333334
317,1.865,3.9850000000000003,4.399186206638638,0.40906694999999993,-0.16588674999999997,-9.746833
318,1.0833333333333333,3.4666666666666663,3.6317979537761387,0.6651527666666667,-0.1804895,-9.880858666666667
319,0.40499999999999997,3.7199999999999998,3.741950621864682,0.5929445,-0.23007595,-9.9062485
320,1.9733333333333334,2.6533333333333333,3.306272513332059,0.6681090666666667,-0.24029486666666666,-9.897787
321,0.775,3.075,3.1710681500899653,0.4097427,-0.20125965,-9.810127999999999
322,1.46,2.7466666666666666,3.110328694655275,0.5524427333333333,-0.1860982,-9.804913666666668
323,1.0,2.355,2.5584100114177963,0.5985552999999999,-0.3176204,-9.984147499999999
324,2.223333333333333,2.5500000000000003,3.3826685555229106,0.4746203666666666,-0.31162656666666666,-9.877077333333332
325,0.905,2.965,3.0999223783532677,0.5342756,-0.21938045,-9.737866
326,0.8799999999999999,2.55,2.697478196470915,0.2912589333333333,-0.15615452999999999,-9.962672
327,1.255,2.025,2.3822246168344225,0.18182575,-0.13853818499999998,-9.872157000000001
328,-0.006666666666666654,2.6666666666666665,2.6666749939690146,0.5883404,-0.1762233,-9.904226999999999
329,0.5,2.75,2.7950506251408087,0.41565355000000004,-0.16722135,-9.784392
330,1.8766666666666667,2.066666666666667,2.791318910798796,0.39645866666666674,-0.19426363333333332,-9.737330666666667
331,1.615,2.6799999999999997,3.1286934105243294,0.18657174999999998,-0.1218565,-9.9271545
332,0.7200000000000001,2.2866666666666666,2.3972837080700073,0.3595024666666667,-0.15105570000000001,-9.758636
333,0.255,1.715,1.7338484879405478,0.46068374999999995,-0.12603815,-9.851540500000002
334,0.3466666666666667,2.6966666666666668,2.7188416903240067,0.2309179,-0.07794194,-10.036350666666666
335,1.37,2.15,2.5492192791447685,0.5947335,-0.1231722,-9.8245705
336,0.24666666666666673,2.1866666666666665,2.200528575600005,0.3321090666666667,-0.08756230000000002,-10.019516666666666
337,-0.85,2.3449999999999998,2.4942176186921823,0.3641379,-0.07927735999999999,-9.7859935
338,1.1466666666666665,2.3633333333333333,2.6266791001663967,0.5058471,-0.08861454666666667,-9.834136
339,-0.365,2.755,2.7790551109029895,0.3693913,-0.06868686,-9.651688499999999
340,0.23333333333333336,2.5966666666666662,2.6071219652944735,0.5143608666666667,-0.08985118666666665,-9.713207
341,0.585,3.055,3.1104542466992053,0.5231382499999999,-0.31727550000000004,-10.009195
342,2.2333333333333334,3.686666666666667,4.309571069978972,0.5801717666666667,-0.3168423666666667,-10.063295
343,2.06,2.325,3.105945154979391,0.39181560000000004,-0.32777455,-9.9668375
344,1.4566666666666668,2.52,2.910482661953621,0.5830203333333333,-0.2954854333333333,-9.926099333333333
345,0.23500000000000001,2.2800000000000002,2.29207239127964,0.51109115,-0.2341386,-9.789515
346,1.1633333333333333,2.27,2.5505952741661644,0.5002429333333334,-0.05276969866666666,-9.893745666666668
347,-1.1549999999999998,2.6399999999999997,2.8814372747609123,0.5375110000000001,-0.1791983,-9.7311645
348,1.2,2.8166666666666664,3.0614458784228304,0.6583815666666667,-0.28254946666666664,-9.932667666666667
349,2.34,3.06,3.8514922282846586,0.6168802,-0.23083294999999998,-9.6218535
350,0.5750000000000001,3.255,3.3053432849657107,0.5085296499999999,-0.08165729,-9.912310999999999
351,0.5399999999999999,3.0666666666666664,3.113802488142487,0.5477077333333333,-0.14057854666666666,-9.831489333333332
352,0.9249999999999999,3.325,3.451128693810537,0.4655055,-0.15746265,-9.7708765
353,0.9933333333333333,2.7633333333333336,2.9363169171306382,0.7676469666666667,-0.11030472666666664,-9.840483
354,-0.47500000000000003,2.96,2.9978365927998323,0.63076645,-0.0253130795,-9.854167
355,-0.006666666666666672,3.47,3.4700063962610406,0.5751046333333334,-0.028565243333333334,-10.065241333333333
356,0.465,4.82,4.8423253383704505,0.67210545,-0.029239175,-9.975319
357,1.9866666666666666,3.8366666666666673,4.3198326517514625,0.5685034,-0.14636323333333331,-9.675059333333333
358,0.47500000000000003,3.285,3.319126800862892,0.5354972,0.007635794999999997,-9.894592
359,-0.7200000000000001,3.0966666666666662,3.1791885093448253,0.6894935000000001,-0.12876667333333333,-9.901799333333335
360,0.4,4.720000000000001,4.736880607977866,0.7315219500000001,-0.28619140000000004,-9.778175000000001
361,3.5366666666666666,4.083333333333333,5.400040120955179,0.7278265666666668,-0.2833627,-9.740637
362,2.26,3.98,4.576000583000902,0.70370015,-0.27879380000000004,-9.860790999999999
363,0.07999999999999996,3.733333333333334,3.734189164696927,0.6073548,-0.15092310333333334,-9.768500666666666
364,0.15000000000000002,3.715,3.7180227891236357,0.70904425,-0.31557665,-9.9803925
365,3.72,4.403333333333333,5.761985884318018,0.7328598666666667,-0.3307158666666667,-9.765214333333335
366,2.425,5.11,5.654831825615104,0.7826171,-0.4025233,-9.964884999999999
367,2.0766666666666667,3.6533333333333338,4.201611871117326,0.7922224666666667,-0.42616570000000004,-9.896001666666667
368,2.435,4.635,5.234454017049957,0.7001507,-0.44332065000000004,-9.785962
369,2.24,3.3666666666666667,4.043051795650847,0.6685941,-0.47210236666666666,-9.676643333333333
370,3.59,3.8550000000000004,5.2658965249002545,0.79297415,-0.56050025,-9.827434499999999
371,3.5100000000000002,3.986666666666667,5.309775642733878,0.7351446666666668,-0.47834003333333336,-9.945180666666667
372,0.915,2.5549999999999997,2.713797148343164,0.6454362,-0.1888415,-9.750143
373,1.0966666666666667,5.673333333333333,5.778014850859741,0.6728445666666666,-0.21036754333333332,-9.920280333333332
374,-1.365,5.375,5.54512224924106,0.73415035,-0.41008564999999997,-10.033179999999998
375,5.010000000000001,1.9333333333333333,5.369203473212848,0.7642407666666666,-0.48726346666666664,-9.806997666666666
376,5.2,3.785,6.428596861446828,0.6274286,-0.12688569999999996,-10.972565
377,2.5933333333333333,2.673333333333334,3.7238699095264343,0.5676473333333333,-0.7874870333333334,-9.634615666666667
378,8.754999999999999,3.96,9.602569778017383,1.0179285,-0.97851485,-9.592931499999999
379,2.033333333333333,5.493333333333333,5.856490271537114,0.8229547,-1.0549179333333332,-9.803283666666667
380,4.855,3.745,6.128821838900623,0.63712525,-1.02942415,-9.9557325
381,5.986666666666667,4.513333333333334,7.492405499163856,0.48658306,-1.0807793333333333,-10.062946333333334
382,5.73,2.45,6.23019846619989,0.7596699499999999,-1.2430925,-9.577763000000001
383,6.413333333333334,4.796666666666667,8.002664552319557,0.7492629333333333,-1.0820128333333334,-9.807418
384,6.3,4.525,7.751322827640091,0.9012989499999999,-1.04549535,-10.154655000000002
385,6.536666666666666,4.023333333333333,7.671043533474822,0.8257329000000001,-1.150474,-9.705421666666666
386,5.505,3.7800000000000002,6.674535016107709,0.9680184000000001,-1.0510465,-9.4352765
387,5.146666666666667,3.563333333333333,6.257103517795964,0.8078867666666666,-0.9656834333333332,-9.903193333333334
388,5.125,3.325,6.106696522571833,0.6281426999999999,-0.85376735,-9.9292345
389,4.173333333333333,3.956666666666667,5.748410017863549,0.5866118333333333,-0.8899065666666667,-10.137422333333333
390,5.9,2.49,6.4022001690478785,0.62510995,-0.831047,-9.935094500000002
391,4.953333333333334,3.9166666666666665,6.311698699987055,0.6681618666666665,-0.7990878333333334,-9.874065333333332
392,3.35,4.880000000000001,5.916903213028998,0.6514772,-0.7751434499999998,-9.7451065
393,4.51,2.3233333333333333,5.072161632335325,0.43009363333333334,-0.7131983666666667,-9.780859666666666
394,4.965,0.6799999999999999,5.011234078790873,0.6050885500000001,-0.6939171,-9.5000535
395,4.033333333333333,5.203333333333333,6.580098312175772,0.6419176666666667,-0.6903961333333334,-10.084566666666666
396,1.4100000000000001,5.245,5.4307060520115815,0.76567315,-0.5999407,-10.046465000000001
397,2.15,2.6133333333333333,3.3836082566318706,0.6385029000000001,-0.45461330000000005,-9.926309999999999
398,2.58,2.51,3.5989221630496377,0.53927075,-0.5768009,-10.028525
399,5.783333333333334,3.17,6.5925477985014815,0.6351873333333332,-0.578157,-9.993539333333333
400,3.42,3.92,5.200436537628642,0.5541133,-0.9548830499999998,-9.7351525
401,4.16,3.49,5.428101359042675,0.6818294333333333,-0.6905369,-9.984491666666665
402,3.36,3.7,4.996388565295639,0.568731,-0.73504585,-9.558115
403,3.926666666666667,2.43,4.616748030826542,0.65347,-0.5982828333333333,-9.902432666666668
404,2.385,3.0,3.83184358398804,0.3409656,-0.5558432,-9.778073000000001
405,3.8700000000000006,3.7866666666666666,5.412386330097491,0.7407312666666667,-0.6563866333333334,-10.028206
406,3.95,4.46,5.955045233254779,0.71538615,-0.72085435,-9.9559115
407,4.31,4.47,6.206390455978222,0.6358161333333333,-0.6767876999999999,-9.642170666666667
408,2.82,3.7699999999999996,4.7067842741431205,0.68050495,-0.60204295,-9.740779
409,4.373333333333334,2.5166666666666666,5.044536555064781,0.5260666333333334,-0.7010048333333333,-9.613346333333334
410,4.25,2.655,5.009849312786749,0.7279114,-0.8231251,-9.413531500000001
411,4.373333333333333,4.5133333333333345,6.281451325065206,0.6694518666666666,-0.8830834333333333,-9.663583000000001
412,4.265,2.4699999999999998,4.927458874225318,0.79774265,-0.721445,-9.832102500000001
413,4.093333333333334,3.063333333333334,5.111107037159036,0.8086061666666667,-0.555457,-10.121701666666667
414,0.48500000000000004,5.915,5.934780008369875,0.6069357000000001,-0.47392305,-9.952249000000002
415,0.9366666666666666,4.420000000000001,4.517964511403138,0.7694189000000001,-0.32029156666666664,-9.828135333333334
416,1.97,4.36,4.783618455942782,0.6851452,-0.37758185,-10.102840999999998
417,2.5000000000000004,5.086666666666667,5.66636980799392,0.7723892,-0.3455627666666667,-9.779236
418,2.1799999999999997,4.375,4.887103858158406,0.5973913000000001,-0.31800229999999996,-9.909892
419,3.016666666666667,4.616666666666666,5.513091892363877,0.6387510666666667,-0.4606836,-9.740203
420,3.2249999999999996,3.74,4.93694701124316,0.6873176000000001,-0.42176955000000005,-9.631028500000001
421,2.703333333333333,4.003333333333333,4.8293675227622215,0.6742476000000001,-0.3578669333333333,-9.830818666666667
422,1.65,5.335,5.583623546393966,0.6593614999999999,-0.46637570000000006,-9.8540985
423,3.3900000000000006,3.0866666666666664,4.583501797992591,0.5878994666666667,-0.3516077,-9.881258
424,2.035,4.574999999999999,5.006300456860115,0.6136011,-0.43141035000000005,-9.861305000000002
425,2.7533333333333334,3.4566666666666666,4.418165662357577,0.5737345666666666,-0.5931285000000001,-9.558120666666666
426,4.88,2.7350000000000003,5.592541963806885,0.7024983499999999,-0.70302585,-9.854737
427,4.076666666666666,2.6299999999999994,4.850199301056333,0.47665956666666665,-0.6095443666666668,-9.627238333333334
428,3.185,1.97,3.744479455825176,0.3089769,-0.5763944999999999,-9.786651500000001
429,3.266666666666667,2.1533333333333333,3.9118959352553784,0.4791378,-0.4908188,-9.777021666666668
430,1.325,2.415,2.7544164827090833,0.5301949,-0.5685911,-9.951414499999998
431,3.346666666666667,1.5166666666666666,3.6739405047645475,0.3890083,-0.44600466666666666,-9.956893333333333
432,0.47,3.275,3.308516944308805,0.32187305000000005,-0.56729975,-9.705919999999999
433,1.87,2.8433333333333337,3.402730252625211,0.6325924666666667,-0.3082502,-9.919638666666666
434,1.8450000000000002,4.535,4.895215826908409,0.6371487,-0.3700545,-9.933303500000001
435,2.8800000000000003,4.0200000000000005,4.943802468799209,0.5071145,-0.3902459,-9.691621666666668
436,3.295,3.59,4.8714382003636,0.7397826,-0.40300515,-9.801258
437,2.5233333333333334,4.09,4.804632240630975,0.4912262,-0.4904329666666667,-9.879745666666667
438,3.655,3.78,5.256237477421575,0.68345455,-0.51561085,-9.871573000000001
439,2.063333333333333,4.1466666666666665,4.630847928902192,0.7662446666666667,-0.4108627,-9.771408333333332
440,3.575,4.244999999999999,5.54772477499994,0.8182908499999999,-0.6898513500000001,-9.9091655
441,3.8366666666666664,4.033333333333334,5.564481901797835,0.8697769666666666,-0.5188726333333333,-10.003032333333334
442,1.475,3.0999999999999996,3.4327105232213615,0.7963465000000001,-0.46352875,-9.453847
443,1.7233333333333334,4.293333333333333,4.625692156342168,0.8352098666666666,-0.42880466666666667,-10.044747
444,2.025,4.775,5.185725718322907,0.8061254,-0.47312730000000003,-9.9923635
445,3.2733333333333334,3.03,4.459329389045559,0.7563000666666667,-0.3700822,-9.911470000000001
446,0.91,4.47,4.561504050687285,0.75887415,-0.27166475,-9.778156
447,1.7233333333333334,6.213333333333334,6.4469944329074425,0.8381591,-0.3171302666666667,-9.797429000000001
448,1.415,3.5999999999999996,3.8677628387392886,0.9392878999999998,-0.1760461,-9.84262
449,1.9400000000000002,4.573333333333333,4.966989118401461,0.6904117333333334,-0.2358105,-9.789460333333333
450,1.77,4.5,4.834920389474273,0.8107519000000001,-0.2270049,-9.704286
451,1.8533333333333333,4.2,4.590064213877284,0.7394823666666667,-0.3259570333333333,-9.820883333333333
452,2.4050000000000002,3.74,4.4456053260328705,0.7443197500000001,-0.3446535,-9.869297
453,2.1133333333333333,4.036666666666666,4.5555968803108415,0.7920082333333335,-0.33602003333333336,-9.745271333333335
454,1.705,3.465,3.8613087117225007,0.64565305,-0.38181390000000004,-9.942317500000001
455,1.8966666666666665,4.163333333333333,4.574314683579476,0.7394033999999999,-0.32538269999999997,-9.902762
456,1.0550000000000002,4.1850000000000005,4.315700391623524,0.7154327,-0.3178588,-9.966603
457,0.6733333333333333,2.6033333333333335,2.688942204167632,0.6317458333333333,-0.16110066666666667,-9.755685999999999
458,0.66,3.435,3.4977568505067977,0.76717035,-0.2987012,-10.20306
459,2.4133333333333336,3.7733333333333334,4.4781467894779015,0.7193741333333333,-0.24578913333333333,-9.827432666666668
460,1.12,3.7800000000000002,3.942204903592261,0.71691835,-0.22650769999999998,-10.0377945
461,0.7733333333333333,3.5133333333333336,3.5973331510707696,0.6376926333333334,-0.2681889233333334,-9.836112
462,3.08,4.105,5.1304175971830075,0.67881915,-0.30238675,-9.6388195
463,2.026666666666667,3.3366666666666664,3.9033418395921293,0.5749138,-0.23469183333333335,-9.817156333333335
464,-0.925,3.415,3.537914150306909,0.38956525000000003,-0.2294351,-9.806481
465,2.8833333333333333,2.8633333333333333,4.062679608028783,0.49006333333333335,-0.37362266666666666,-9.721091666666668
466,3.9299999999999997,2.48,4.646035980458027,0.32224539999999996,-0.4161941,-10.04182
467,2.063333333333333,2.653333333333333,3.360725836182533,0.4565792666666666,-0.4015350666666666,-9.923785
468,3.025,3.865,4.906624441404148,0.49286725,-0.33798145,-9.8946845
469,2.1666666666666665,3.2699999999999996,3.92202063591715,0.43114066666666667,-0.3345337666666666,-9.883478333333334
470,1.6099999999999999,2.87,3.2904151066961433,0.68508835,-0.27045650000000004,-9.972753
471,1.78,3.4266666666666663,3.8609151362961858,0.5878018333333334,-0.3088089666666667,-9.983635000000001
472,2.2199999999999998,2.83,3.5962885158499254,0.6095056999999999,-0.30799014999999996,-9.916903000000001
473,2.02,4.16,4.623724345566408,0.6143279,-0.33902116666666665,-9.864357666666665
474,1.545,3.725,4.03228046694317,0.525295,-0.34838240000000004,-10.035362000000001
475,1.82,3.2733333333333334,3.7447972331318837,0.4913504333333332,-0.3495574666666667,-9.761136333333333
476,3.4450000000000003,2.6100000000000003,4.321100882283091,0.66605145,-0.46283365,-10.1099
477,2.4133333333333336,3.5700000000000003,4.308310322024189,0.5509984666666666,-0.43060840000000006,-9.751739666666666
478,2.15,3.7800000000000002,4.347895002627108,0.65059835,-0.3720718,-9.9951605
479,-0.22666666666666666,1.9933333333333334,2.0061741762179737,0.5159956,-0.49049303333333333,-10.073731333333333
480,4.12,1.305,4.3213989182097405,0.40820955000000003,-0.39525580000000005,-9.59667
481,3.2099999999999995,2.3733333333333335,3.9913551420712876,0.45653089999999996,-0.47858690000000004,-9.888546
482,0.28,2.495,2.510652392963717,0.42898375,-0.35435140000000004,-9.7907755
483,4.07,1.843333333333333,4.467332568594634,0.3029117,-0.4111483,-9.677541333333332
484,1.555,3.765,4.073053948384629,0.56684095,-0.18250824699999998,-9.7318505
485,2.24,3.6566666666666667,4.287423021455527,0.47434266666666663,-0.5183022666666667,-9.879612666666667
486,2.815,3.74,4.6798039812612995,0.5507528500000001,-0.39127999999999996,-9.947290500000001
487,3.643333333333333,2.64,4.498230781375807,0.5713249666666668,-0.4760052666666666,-10.005187999999999
488,-0.45500000000000007,2.435,2.477120373618234,0.43713265,-0.57144335,-9.9409315
489,1.59,1.08,1.9220303226986162,0.09028718999999999,-0.62483705,-10.535055
490,2.026666666666667,1.1933333333333334,2.3517712992738877,0.24237056666666668,-0.35857046666666664,-9.540546333333333
491,-1.47,4.455,4.690796126407055,0.143976,-0.60164905,-9.789576
492,1.3233333333333335,3.8233333333333337,4.045551720735815,0.5819088333333333,-0.23985886666666667,-9.70715
493,2.845,1.145,3.066589688029393,0.8715877999999999,-0.07316041499999999,-10.2061665
494,-2.9933333333333336,6.533333333333334,7.1837047566848256,0.6008027666666667,-0.13288715666666667,-9.949057
495,1.21,2.455,2.736828249146048,0.568345,-0.31515645000000003,-10.005962
496,4.973333333333334,0.9666666666666668,5.0661761548741975,0.3898262466666667,-0.5077160666666667,-9.836312999999999
497,3.7199999999999998,2.255,4.349284663677727,0.3904271,-0.6535511,-10.094961999999999
498,4.016666666666667,3.983333333333333,5.654603924801292,0.5748806666666666,-0.7373884,-9.748944666666667
499,3.545,3.2350000000000003,4.797800501969379,0.7001623,-0.91345865,-9.8848165
500,3.2866666666666666,3.6200000000000006,4.887964537424245,0.4676426,-0.6641996333333333,-9.563963333333334
501,2.2199999999999998,2.545,3.3767118593090637,0.45736385,-0.5687622000000001,-9.6191755
502,4.153333333333333,3.9666666666666663,5.740822572463572,0.44232099999999996,-0.5666129,-9.611411333333335
503,3.6500000000000004,2.745,4.565887387806909,0.6018964,-0.62904695,-9.8996235
504,2.85,3.7866666666666666,4.7380917112316725,0.6501397666666666,-0.6910466,-9.932733333333333
505,3.85,3.3200000000000003,5.082155239315081,0.55654285,-0.56252935,-9.714363500000001
506,3.956666666666667,3.393333333333333,5.2107205016055165,0.7358779333333333,-0.5939297666666666,-9.907704
507,4.35,4.115,5.985245712991058,0.51319425,-0.6191682000000001,-9.9561135
508,5.12,3.8499999999999996,6.402922205509398,0.5516007666666666,-0.6956568333333334,-9.904539
509,3.935,3.185,5.060878618524531,0.5120868000000001,-0.6491187,-9.437256999999999
510,4.343333333333333,3.776666666666667,5.753296111111431,0.5996726666666666,-0.6955844333333333,-9.912835
511,4.78,3.87,6.147400003020018,0.6773085999999999,-0.5064128,-9.286905
512,2.3233333333333337,4.79,5.322536516649987,0.4777696333333334,-0.5087263666666667,-9.819793333333333
513,3.6,4.380000000000001,5.667374865051136,0.758708,-0.39526530000000004,-9.609540500000001
514,3.4033333333333338,4.663333333333333,5.770941178077699,0.7238236333333333,-0.4765321666666667,-9.869038333333334
515,2.39,5.645,6.128591072895021,0.6945740499999999,-0.49063285,-9.8671
516,2.94,3.9866666666666664,4.952085924330855,0.7401539,-0.4326855666666667,-9.994788
517,2.415,4.625,5.21633736313441,0.68655515,-0.29475325,-9.7459435
518,2.8866666666666667,3.236666666666667,4.335895330097053,0.5770324666666666,-0.4617182,-9.994482666666666
519,2.73,5.045,5.734601208821281,0.8104548,-0.39918890000000007,-9.794204
520,1.4533333333333334,5.796666666666667,5.975475759659334,0.8313675666666668,-0.4093510333333333,-10.10613
521,2.08,4.75,5.184494469426318,1.0703502500000002,-0.25163755,-9.691685500000002
522,1.14,5.243333333333333,5.365492931523044,0.9652931333333333,-0.2348634666666667,-9.992209333333333
523,1.7349999999999999,6.31,6.5432518207443655,1.06715,-0.31345755,-9.978086999999999
524,0.64,5.62,5.65620769923865,0.9262287333333333,-0.2229711,-9.737301333333333
525,1.475,5.699999999999999,5.887142137062934,0.97688065,-0.21372000000000002,-9.846978
526,1.7533333333333332,5.863333333333333,6.118996331488142,0.9415426333333334,-0.25350053333333333,-9.836465333333335
527,1.375,5.66,5.824093990261524,0.8274847999999999,-0.30720295,-9.95697
528,1.22,5.653333333333333,5.783056659339671,0.9252045666666667,-0.32003396666666667,-9.779142666666667
529,2.615,5.04,5.676458042801126,0.8783053999999999,-0.31311485,-9.5698625
530,1.3,4.453333333333333,4.6388331577273725,0.8738356,-0.31849733333333335,-9.785858666666666
531,1.325,4.38,4.575653357137914,0.8290363000000001,-0.25479215,-9.974555500000001
532,1.7700000000000002,5.976666666666667,6.232340839417591,0.9577567,-0.2506367333333333,-9.800661666666668
533,1.58,5.91,6.116832481783811,0.9789002,-0.25605545,-9.756743
534,1.8833333333333335,5.513333333333333,5.825189593669286,0.9148152333333334,-0.2927781,-9.796495666666667
535,2.125,4.42,4.903372608356521,0.7721048500000001,-0.27240595,-9.796365999999999
536,1.5466666666666666,5.1033333333333335,5.331965786820426,0.8848688333333333,-0.2379998333333333,-9.999115000000002
537,0.8250000000000001,6.895,6.943944211639574,1.0189306500000002,-0.27520595000000003,-9.8721855
538,-0.17666666666666667,5.626666666666666,5.629430565426845,1.0257127666666666,-0.10449713000000001,-9.924911999999999
539,0.01999999999999999,4.73,4.730042187010298,1.0284083499999999,-0.18250655,-10.10294
540,1.5599999999999998,5.433333333333334,5.652204131198432,0.9180559333333332,-0.23795616666666666,-9.768618
541,1.705,5.6850000000000005,5.9343662917447135,0.87273235,-0.20295144999999998,-9.958994
542,1.4100000000000001,4.94,5.136805525262397,0.9216074666666666,-0.23681699999999997,-9.800883
543,1.2999999999999998,5.285,5.442097856949047,0.7499948000000001,-0.11799694999999999,-9.765226
544,0.96,4.636666666666667,4.7347930311557,0.8346684333333334,-0.19700043333333336,-9.927002666666667
545,1.055,3.545,3.6984631045119474,0.8025866,-0.11926800000000001,-9.8791275
546,-0.06666666666666667,4.68,4.680473753352141,0.672809,-0.14681669333333333,-9.768532333333333
547,1.08,5.115,5.227477846048264,0.8943429,-0.13166521,-9.800458500000001
548,1.5199999999999998,5.43,5.638118346598353,0.9146198,-0.19832933333333333,-10.026052666666667
549,1.015,5.055,5.155635314980072,0.78009475,-0.15486385,-9.672441
550,0.9533333333333333,4.5200000000000005,4.6192378421762355,0.7150548333333333,-0.14254989,-9.730542333333332
551,0.22,5.67,5.67425254117308,0.91297425,-0.3407945,-9.8254935
552,3.6366666666666667,4.4,5.706078240565857,0.4228591,-0.3497429333333333,-9.777169333333333
553,4.8,1.455,5.015183921790067,0.40119085,-0.3298259,-9.9115535
554,1.5,4.733333333333333,4.964808484967933,0.6820816333333332,-0.28284196666666667,-9.836393000000001
555,0.895,5.49,5.56225421943428,0.8776182,-0.38503585,-10.149476499999999
556,2.5366666666666666,4.016666666666667,4.749499217080564,0.7517619,-0.30394723333333334,-9.956564666666667
557,1.365,4.075,4.297174327243059,0.59848085,-0.27434185,-9.730492
558,0.8799999999999999,5.28,5.352626139724547,0.6991776,-0.34861516666666664,-9.878466333333334
559,1.96,3.375,3.9022788794367043,0.71736935,-0.3619961,-9.7424855
560,2.1633333333333336,4.453333333333334,4.950026248421496,0.8029427666666668,-0.24422483666666664,-9.797782666666665
561,1.625,2.85,3.2803881880153742,0.86227955,-0.18168365,-9.741872
562,0.09333333333333334,4.496666666666666,4.497633192012457,0.6276433333333333,0.08130806666666668,-10.002302666666665
563,-2.04,3.605,4.141513179655216,0.730113,-0.03910985,-9.623692
564,0.09333333333333331,3.813333333333334,3.8144736669927917,0.5564943,-0.0004086700000000022,-9.768400666666667
565,0.585,3.4699999999999998,3.51890700114634,0.55248255,-0.14221695,-9.908754
566,2.0066666666666664,2.876666666666667,3.5069271308956522,0.5920071,-0.14522978,-9.930943666666666
567,1.835,3.69,4.120517926139778,0.5293317,-0.18788815,-9.81582
568,0.8233333333333333,3.483333333333333,3.5791973264146493,0.6133935,-0.23707353333333334,-10.039812
569,1.98,2.95,3.5523843925661556,0.627929,-0.08959647500000001,-10.0613595
570,-0.040000000000000015,3.56,3.5602244227693562,0.5484999666666667,-0.21772706666666672,-10.043218333333334
571,0.71,3.4450000000000003,3.517316785849166,0.5590438499999999,-0.058458260000000005,-9.839858
572,0.8733333333333334,2.31,2.4694934309483823,0.567646,-0.04364662766666666,-10.033893
573,-1.5299999999999998,3.105,3.461160620142829,0.43213815,-0.09159682499999999,-10.29073
574,0.8400000000000002,3.0400000000000005,3.1538132066414715,0.5099115,-0.22646047000000002,-9.532137
575,5.23,0.76,5.284779547811457,0.37100575,-0.34264375,-9.857804999999999
576,0.9266666666666666,2.393333333333333,2.56637020801348,0.5021130333333333,-0.4464007333333333,-10.047127000000001
577,0.07500000000000001,4.035,4.0356958133358924,0.39538530000000005,-0.39032855,-9.8836105
578,1.89,1.0333333333333334,2.153947643231446,0.4996205,-0.4401175,-9.798026666666667
579,3.1550000000000002,0.555,3.2033948565713097,0.5027942,-0.5176929,-10.0369855
580,1.2433333333333334,3.6999999999999993,3.9030408956494678,0.4132991,-0.18910680999999996,-9.915762666666666
581,0.9450000000000001,1.94,2.1578423704719567,0.58016985,-0.199744755,-10.1047185
582,0.11,3.013333333333333,3.0153385580389442,0.3868694,-0.2704335,-9.971370333333333
583,1.01,2.37,2.5761246325912404,0.51946045,-0.46805825,-9.8526055
584,4.073333333333333,1.6633333333333333,4.39932486311351,0.5750999666666666,-0.4621283666666667,-9.726991
585,-0.3,5.135,5.143732487582189,0.61743685,-0.4779164,-9.878816
586,1.8166666666666667,4.503333333333333,4.855253819549851,0.6894010333333332,-0.4629691333333333,-9.939236
587,1.04,3.0949999999999998,3.264900114602293,0.60259865,-0.47415745000000004,-9.662272
588,3.42,1.7033333333333334,3.820248377151531,0.6512532666666667,-0.5175554666666667,-9.895902000000001
589,2.46,2.275,3.350230437828543,0.5481735999999999,-0.58986615,-9.8855845
590,3.8633333333333333,2.316666666666667,4.503793056603466,0.24426426666666665,-0.5341438000000001,-9.994055999999999
591,2.645,1.595,3.0884045152631363,0.44312555,-0.31896990000000003,-9.762689
592,1.9499999999999995,0.49,2.0105987389728517,0.5358661666666666,-0.49115960000000003,-9.962031666666666
593,0.9450000000000001,3.865,3.9786800588977425,0.7928492,-0.44029155,-9.934392500000001
594,2.4933333333333336,5.456666666666667,5.997759013907734,0.7511435333333334,-0.3364302666666667,-9.643982333333334
595,0.76,5.11,5.166059206068924,0.6846949,-0.4774689,-10.161455
596,2.81,3.7699999999999996,4.700808388261071,0.6868932,-0.34200956666666665,-9.993960999999999
597,2.075,3.8099999999999996,4.3376694535164155,0.82658385,-0.26870265,-9.9505845
598,1.97,3.6633333333333336,4.158800418346052,0.7393186666666667,-0.5055753333333334,-9.835568
599,4.380000000000001,3.795,5.792957033171729,0.9037739,-0.48769025,-9.739347500000001
600,2.3866666666666667,5.136666666666667,5.662707072467114,0.6567497666666667,-0.44668123333333326,-9.626534333333332
601,2.4050000000000002,3.98,4.649206143967007,1.0360740000000002,-0.5115616,-10.297485
602,1.05,3.76,3.9036542943119166,0.7753961666666668,-0.30533656666666664,-9.886543333333334
603,2.475,4.26,4.925640242306832,0.62737745,-0.3874968,-9.819348
604,2.7533333333333334,3.0233333333333334,4.088318791801155,0.5619321666666667,-0.4508333666666667,-9.693632000000001
605,3.115,2.42,3.9438373593379015,0.82975615,-0.40142695,-9.923314000000001
606,2.263333333333333,4.72,5.233496266030931,0.7403309666666668,-0.5073992333333334,-9.726623666666667
607,3.37,4.18,5.367414606521317,0.68392665,-0.5943803,-9.879995000000001
608,4.013333333333333,2.6966666666666668,4.8339380131631495,0.5711139333333333,-0.6378046,-9.869665
609,4.07,3.2,5.175680350487595,0.36982845,-0.48855060000000006,-9.8916845
610,3.1533333333333338,3.7399999999999998,4.890499114541105,0.6735344,-0.5840889333333333,-9.939590666666666
611,3.615,3.63,5.1212919047432095,0.5507357,-0.5267023,-10.0040885
612,3.483333333333333,2.0933333333333333,4.0632812979399,0.5001919,-0.35858860000000004,-9.870291
613,1.08,5.605,5.707775553679376,0.49235255,-0.48300085,-9.993269
614,2.67,3.073333333333333,4.070311821331172,0.7001192,-0.43836706666666664,-9.669691
615,2.8200000000000003,2.8200000000000003,3.987276830510987,0.38119665,-0.50145415,-9.838067500000001
616,2.8633333333333333,3.876666666666667,4.818164096132548,0.48185683333333335,-0.5075409333333333,-9.810587666666668
617,2.5,3.56,4.349201535185605,0.6913977,-0.44844155,-9.865923
618,1.96,4.5,4.907514356657633,0.6662348333333333,-0.3479286000000001,-9.814307000000001
619,2.3049999999999997,3.675,4.337206612650651,0.78520875,-0.28428244999999996,-9.9104495
620,0.98,3.5566666666666666,3.6890437573353756,0.7678211333333333,-0.1577089,-9.900919333333334
621,0.6300000000000001,4.27,4.316140048685222,0.884538,-0.0883642,-10.173960000000001
622,0.32666666666666666,3.02,3.037599754711261,0.7086437999999999,-0.20099029999999998,-9.793411666666668
623,3.02,3.74,4.805729946470057,0.7398866,-0.32096225,-9.8121305
624,2.1766666666666663,3.1966666666666668,3.8667348060665265,0.6559127333333333,-0.3229733333333333,-9.872954333333332
625,0.78,3.1950000000000003,3.2887374851575677,0.7353962,-0.30527170000000003,-9.806280000000001
626,1.64,4.183333333333334,4.492782712025932,0.7936152333333334,-0.3342170666666667,-9.967543333333333
627,2.5,4.085,4.788176064636873,0.7105661,-0.41101645,-9.8029125
628,3.0,4.003333333333333,5.001202287250948,0.6326591333333333,-0.4240820333333333,-9.886379666666668
629,2.16,2.94,3.647616216846714,0.485889,-0.49031274999999996,-9.875551
630,3.933333333333333,3.263333333333333,5.109179716724582,0.5637049333333334,-0.45851256666666673,-9.779428000000001
631,2.35,4.025,4.659832238709391,0.6335919999999999,-0.54253325,-10.0757615
632,2.683333333333333,4.3500000000000005,5.109690402394422,0.7445559999999999,-0.5339975333333333,-9.921669333333334
633,3.4450000000000003,3.935,5.228152644558672,0.6857534,-0.44931360000000004,-10.116634999999999
634,2.6033333333333335,3.5766666666666667,4.422791200069064,0.7598258666666666,-0.5961414333333334,-9.645766
635,2.5300000000000002,5.13,5.718451204290744,0.8483025,-0.45789664999999996,-9.829612
636,2.9499999999999997,4.523333333333333,5.39860666196348,0.8878406999999999,-0.4049036666666666,-9.587745
637,2.185,4.98,5.437149553691617,0.8708134000000001,-0.4778222,-10.116805
638,1.9266666666666667,3.9600000000000004,4.403150172534727,0.8328065666666666,-0.5086181666666667,-10.278183333333333
639,2.45,4.855,5.436832726532069,0.66516015,-0.3996181,-9.702895999999999
640,3.5866666666666673,3.9599999999999995,5.340906507533237,0.6540232666666667,-0.5544688,-9.942308333333335
641,2.295,3.605,4.272715416265179,0.8156010499999999,-0.33579245,-9.954042
642,1.45,4.656666666666666,4.87672152778593,0.7877083000000001,-0.3387266666666666,-9.833949666666667
643,2.66,4.155,4.932262718454177,0.7355889499999999,-0.40299345,-10.01321
644,3.7733333333333334,3.1566666666666663,4.918147606475997,0.6753477000000001,-0.4630187333333334,-9.66462
645,2.705,5.1,5.771281262640893,0.7323348000000001,-0.51487365,-9.6469
646,4.2,3.42,5.41437323303024,0.6141252333333332,-0.4958053999999999,-9.772803333333334
647,2.16,4.699999999999999,5.171569333682528,0.73846585,-0.69054935,-10.1531865
648,3.0066666666666664,3.0066666666666664,4.251092544223982,0.49072370000000004,-0.4137944666666667,-9.696796999999998
649,1.44,3.82,4.0820248048305,0.7332994,-0.4334647,-9.851426
650,1.45,4.1000000000000005,4.348437641367627,0.6827552666666666,-0.49337839999999994,-9.78553
651,3.39,3.4450000000000003,4.831797766483276,0.7215419,-0.52765,-9.97139
652,2.1166666666666667,3.0666666666666664,3.725646616701647,0.5875941333333333,-0.46495369999999997,-9.693392333333334
653,2.88,3.285,4.367669062594588,0.6240111,-0.44703570000000004,-9.581704
654,3.3699999999999997,3.3333333333333335,4.738690986593107,0.5960986333333333,-0.5636520333333334,-9.857584999999998
655,2.605,3.975,4.751395335067032,0.7939715,-0.5569822499999999,-9.9870975
656,2.7466666666666666,4.083333333333333,4.919858751183063,0.5738532000000001,-0.5448094,-9.726026666666668
657,3.08,3.285,4.501913612045885,0.7639962999999999,-0.5704502499999999,-9.8161135
658,2.4633333333333334,3.0533333333333332,3.922385699661007,0.6408814333333334,-0.5193477000000001,-9.758493
659,2.085,2.84,3.5226785033384798,0.86988815,-0.5226881999999999,-10.024235000000001
660,2.7266666666666666,3.323333333333333,4.297780211162248,0.5864597666666667,-0.4506611333333334,-9.976354333333335
661,2.68,4.075,4.876054629967743,0.69337355,-0.46428565,-9.918444000000001
662,2.8733333333333335,3.2099999999999995,4.307145590934855,0.5784600666666667,-0.43265909999999996,-9.802820333333331
663,2.8499999999999996,2.365,3.7028516974706784,0.38540929999999995,-0.4340341,-9.788398
664,2.4466666666666668,2.8200000000000003,3.7327928808804596,0.5758358,-0.33693923333333325,-9.927249333333334
665,1.47,3.58,3.8696882332035667,0.61766425,-0.4234942,-9.949428000000001
666,1.9600000000000002,2.986666666666667,3.5718758877646004,0.6248965000000001,-0.3463541666666667,-9.975491
667,2.55,3.0300000000000002,3.959461617984579,0.63096745,-0.42637695,-10.018884
668,2.9433333333333334,2.7466666666666666,4.025015581448004,0.38442413333333336,-0.4172446666666667,-9.792658333333334
669,2.215,2.325,3.2107875194348243,0.6434848,-0.49492674999999997,-9.846266
670,3.8266666666666667,2.216666666666667,4.421502013625837,0.03354325999999999,-0.7032628666666666,-9.754361
671,5.16,-0.6900000000000001,5.205805618289742,0.31662124999999997,-0.7236952999999999,-9.7500225
672,4.046666666666667,-0.14333333333333334,4.049200091844347,0.05851278000000001,-0.48536730000000006,-9.824767666666666
673,1.945,1.56,2.4931285717204346,0.01763042,-0.50342345,-9.921727
674,3.0833333333333335,1.0366666666666668,3.252781053777561,0.20127764666666667,-0.5837754,-10.127372333333334
675,4.88,0.605,4.917269514918532,0.14546272500000001,-0.7920350999999999,-9.842508500000001
676,4.056666666666666,2.6933333333333334,4.868106578957093,0.3512517,-0.6661968,-9.841433
677,3.255,2.23,3.94494276439358,0.33819575,-0.58735835,-9.801057499999999
678,3.3533333333333335,1.13,3.538401633453306,0.29829676666666666,-0.6409802333333333,-9.815944333333334
679,4.19,1.6400000000000001,4.4989891601312495,0.37125555,-0.6873954,-9.879274
680,3.9766666666666666,1.5066666666666666,4.252090757532369,0.21144526666666666,-0.6463869333333333,-9.734465666666667
681,3.1399999999999997,0.8049999999999999,3.2414466061969254,0.1884339,-0.57847485,-9.929990499999999
682,3.9499999999999997,1.6133333333333333,4.266288706314151,0.3030795333333333,-0.6317237,-9.720121666666666
683,3.415,1.335,3.6663795442089344,0.4276705,-0.6551914000000001,-9.885932500000001
684,3.186666666666666,1.2133333333333334,3.4096193160469443,0.27120626666666664,-0.6084201,-9.917712000000002
685,3.21,1.075,3.385042927855169,0.1479606,-0.82930215,-10.0963435
686,4.556666666666667,0.6200000000000001,4.598565030590924,0.4418813,-0.6240016333333332,-9.972626666666667
687,2.9699999999999998,4.26,5.1915543816883725,0.3617806499999999,-0.6127334,-9.627492
688,3.296666666666667,2.1,3.908086877282494,0.5277387666666665,-0.5825017666666666,-9.902129
689,2.94,2.55,3.8910655656676254,0.14699873,-0.55141285,-9.7679525
690,3.75,1.6433333333333333,4.093798607629392,0.5067108333333333,-0.6564739666666667,-9.789075333333335
691,4.005,1.7,4.3503236977219055,0.38432115,-0.69070305,-9.713384999999999
692,4.223333333333333,1.89,4.626248174742489,0.4283648666666667,-0.7279444,-9.853173666666667
693,4.255,0.855,4.339896956408194,0.33124925,-0.6933408000000001,-9.7671475
694,3.9333333333333336,1.39,4.171351682266358,0.23985993333333333,-0.6357639999999999,-10.021435666666667
695,3.535,3.0,4.635169933378302,0.30489900000000003,-0.65762005,-9.936257000000001
696,3.72,2.013333333333333,4.2292095353347365,0.44086849999999994,-0.6856604000000001,-9.919940333333335
697,3.33,2.1950000000000003,3.987668285689414,0.48617685,-0.64094505,-9.690941
698,3.9166666666666665,1.8266666666666669,4.321086614159777,0.3734496666666667,-0.6477248666666667,-9.996117666666667
699,3.63,1.445,3.90667766992118,0.3521065,-0.77061415,-9.868633500000001
700,5.09,2.0,5.467867121746346,0.32404673333333334,-0.6737231333333332,-9.941934999999999
701,2.515,3.0549999999999997,3.9562929472932984,0.37812989999999996,-0.6299880999999999,-9.7613325
702,3.396666666666667,2.4499999999999997,4.187219848379969,0.3678423333333333,-0.7012705333333334,-9.900422
703,4.58,1.96,4.980945046118802,0.5429432,-0.6835003500000001,-9.959244
704,2.7566666666666664,2.35,3.6218018607754803,0.4107929333333333,-0.6394721,-9.891435333333334
705,4.655,1.75,4.972402169575484,0.5001656999999999,-0.740498,-9.768936499999999
706,4.14,1.3966666666666665,4.368853581680125,0.33132776666666663,-0.6389824000000001,-9.813629999999998
707,3.5300000000000002,2.015,4.063986466400127,0.42016385,-0.5763757,-9.949278499999998
708,3.5366666666666666,1.5966666666666667,3.879963500283718,0.27308124,-0.6079344,-9.974973333333333
709,3.645,1.78,4.055878355735297,0.22586433500000003,-0.7311011,-9.9264525
710,4.956666666666667,1.0733333333333335,5.0712634931924825,0.26938956666666664,-0.6970008000000001,-9.766267000000001
711,2.885,1.23,3.1360558258241387,0.14797922,-0.6736311500000001,-9.861248
712,3.7566666666666664,2.373333333333333,4.442654699719245,0.4335670333333333,-0.7187617333333334,-10.017544333333332
713,3.745,2.335,4.412423650896438,0.4512039,-0.6397818500000001,-9.9689415
714,3.7000000000000006,1.9933333333333332,4.202124762511949,0.5181612999999999,-0.6087590666666666,-9.894691333333332
715,3.015,2.43,3.8716499114818115,0.4789178,-0.6754863,-9.815670999999998
716,3.766666666666667,2.2133333333333334,4.368015812563102,0.46752219999999994,-0.6841269333333333,-9.759250666666668
717,3.975,2.9450000000000003,4.945677733104254,0.27684385,-0.68053655,-9.6850735
718,3.686666666666666,2.1500000000000004,4.267039884507196,0.3000219,-0.6163092666666666,-9.764637333333333
719,3.84,2.065,4.3592932799133575,0.3082525,-0.617388,-9.8777575
720,3.6099999999999994,2.203333333333333,4.2285164541713876,0.4758011,-0.7541725666666667,-9.937899666666667
721,4.085,2.46,4.76744862521931,0.38192139999999997,-0.63910495,-9.7921595
722,3.1966666666666668,2.266666666666667,3.9180509129652354,0.5289606000000001,-0.6629820333333334,-9.880415666666666
723,4.505,1.28,4.682952827012318,0.4633008500000001,-0.6583195,-9.869388
724,3.75,2.27,4.382697723170334,0.4862808333333333,-0.7619625333333332,-10.055277666666667
725,4.859999999999999,2.43,5.432341088582709,0.3297873,-0.7300689,-9.721123
726,4.3933333333333335,1.7966666666666669,4.745846562105703,0.39958473333333333,-0.7707065666666666,-9.867712333333333
727,4.005,2.205,4.5710095061098155,0.31820255,-0.6919461,-9.8117105
728,4.446666666666666,2.3800000000000003,5.042406771837489,0.5178296,-0.8669490666666667,-9.855785333333335
729,4.96,2.9450000000000003,5.766536648695529,0.6045573,-0.9660622000000001,-9.8615245
730,5.43,3.026666666666667,6.214351421461665,0.4443698333333333,-0.8547911,-9.900224333333332
731,5.220000000000001,3.105,6.071468555922627,0.5107956499999999,-0.8832276,-9.924135
732,5.159999999999999,2.953333333333333,5.943414850498132,0.5364214666666667,-0.9142830000000001,-9.863041666666666
733,4.805,4.02,6.261829553676966,0.5013100500000001,-0.8129449000000001,-9.7633145
734,4.5,3.3800000000000003,5.6259127622116925,0.5121318666666667,-0.7938174,-9.767052333333334
735,4.625,3.2800000000000002,5.667948716426762,0.583621,-0.6722218499999999,-9.791405999999998
736,4.776666666666666,3.146666666666667,5.717962990862057,0.47190736666666666,-0.8054547,-9.778376
737,4.325,2.88,5.194637847507469,0.4948644,-0.82546365,-9.870987
738,5.046666666666667,2.34,5.561499364192893,0.5133008333333333,-0.8891016333333331,-9.680909333333334
739,5.17,3.0300000000000002,5.990397698901366,0.3444973,-0.8767735999999999,-9.764691000000001
740,4.426666666666667,1.8466666666666667,4.795702989266245,0.38703856666666664,-0.7240763666666666,-9.774204333333333
741,3.9699999999999998,2.325,4.599768515751897,0.29406709999999997,-0.8030635500000001,-9.788829
742,4.523333333333333,3.5066666666666664,5.721161733070339,0.46711223333333335,-0.6834303666666667,-9.770688
743,3.705,2.6,4.525218092722539,0.47719405000000004,-0.7198886,-9.808435000000001
744,3.986666666666667,2.0933333333333333,4.502052958475048,0.4294597666666667,-0.7037049,-9.805567333333334
745,3.54,2.015,4.072671952695022,0.59855985,-0.66117045,-9.7251715
746,4.03,2.296666666666667,4.637550600681668,0.43976826666666663,-0.6814663,-9.715456666666666
747,4.59,2.89,5.422390819934974,0.5268465499999999,-0.6906717499999999,-9.902455999999999
748,4.513333333333333,2.7399999999999998,5.278469521358134,0.6549727,-0.7511932666666666,-9.913129
749,3.9450000000000003,4.7,6.133358822697182,0.5752709500000001,-0.83863025,-9.856804
750,4.603333333333334,3.5733333333333337,5.825109073593799,0.5239404,-0.6970419,-9.933487999999999
751,3.21,1.38,3.4937811881072567,0.6332437,-0.6494396,-9.957849500000002
752,3.356666666666667,2.5999999999999996,4.244935148423829,0.44896753333333334,-0.5718934999999999,-9.843625666666666
753,3.585,2.22,4.215944864004158,0.5297973,-0.53673835,-10.027470000000001
754,4.073333333333333,1.6066666666666667,4.37824982989816,0.47099073333333336,-0.6175879999999999,-9.999435
755,1.755,4.095000000000001,4.454638424021216,0.4291612,-0.66231745,-9.6384975
756,4.153333333333333,0.9333333333333332,4.25673143580956,0.4950325666666666,-0.6772771333333333,-9.842524
757,3.485,2.46,4.264898511555372,0.45192944999999995,-0.687619,-9.8884945
758,5.216666666666667,1.5166666666666666,5.432083287466244,0.28439993333333335,-0.8169546,-9.949821666666667
759,3.955,0.8500000000000001,4.0451671273022605,0.58875225,-0.7578502,-9.963998499999999
760,4.046666666666667,2.49,4.750294426124111,0.4939744666666667,-0.6183445666666666,-9.889147000000001
761,3.25,1.72,3.6766460563232086,0.35686775,-0.6222186000000001,-9.826165
762,3.4233333333333333,0.6066666666666666,3.47661005727707,0.23964143333333332,-0.5023162999999999,-9.890015666666669
763,3.59,3.295,4.8714382003636,0.29927709999999996,-0.5260603,-9.6481755
764,3.2466666666666666,0.30666666666666664,3.2611022999279897,0.2742655666666666,-0.6148296666666667,-9.745581333333332
765,4.46,2.495,5.109211795800778,0.11686754999999999,-0.5392456999999999,-9.600135
766,4.57,1.1966666666666665,4.723756234351127,0.3281582966666666,-0.6790824999999999,-10.098109
767,3.755,0.385,3.774657298906099,0.24985480000000002,-0.69856275,-10.095659999999999
768,4.673333333333334,2.6133333333333333,5.35298061643091,0.17390269666666666,-0.7917380666666666,-9.894786
769,4.6,2.015,5.021105143311502,0.4355442,-0.7466522,-9.952204
770,3.52,1.5566666666666666,3.8484492365507283,0.4647459333333333,-0.6302498,-9.781501
771,3.69,2.48,4.444996428093909,0.57403655,-0.6768172,-9.9644115
772,3.4033333333333338,2.263333333333333,4.086481219224737,0.5338065333333333,-0.6395335666666667,-9.789597
773,4.28,3.075,5.268436892444016,0.3760825,-0.6689042000000001,-9.8858775
774,4.2,1.64,4.5083012912046385,0.3248021,-0.6904931666666667,-9.660454
775,3.1950000000000003,1.5350000000000001,3.5442639738563932,0.31401735000000003,-0.6619944500000001,-10.0206525
776,4.166666666666667,2.3533333333333335,4.784299475303694,0.38180400000000003,-0.6574728000000001,-9.923048
777,3.395,1.805,3.8445072310243575,0.42991520000000005,-0.6186923,-9.770649500000001
778,3.8366666666666673,1.1366666666666665,4.0012611112349425,0.1566776533333333,-0.6970343,-9.774985666666666
779,4.245,1.79,4.60632823508359,0.17805153,-0.6388796000000001,-9.9253945
780,3.8800000000000003,1.07,4.024617909507226,-0.09954755,-0.6440868666666666,-9.750166666666667
781,3.6799999999999997,0.7849999999999999,3.762682207595214,0.23940994999999998,-0.6136903,-9.871779
782,3.44,1.6633333333333333,3.8205958206880406,0.2863859,-0.5243444666666667,-9.831722
783,2.8,1.175,3.0363671919526722,0.36439055,-0.5812353,-9.731847
784,3.513333333333333,1.4433333333333334,3.7979086963085646,0.3724047,-0.6410440000000001,-9.891419333333333
785,4.19,1.185,4.354057971632886,0.23918945,-0.6333576000000001,-9.9045225
786,4.386666666666667,1.2733333333333334,4.5673901591886805,0.22928319666666672,-0.6171793333333332,-9.833687333333332
787,3.625,2.005,4.141893801185337,0.53175275,-0.6703724,-10.009624500000001
788,3.4766666666666666,2.28,4.156829169560686,0.3570342333333334,-0.5278832333333333,-9.955219
789,3.76,1.45,4.029526128973439,0.4694709,-0.6296504,-9.90021
790,3.65,1.51,3.9496220838649045,0.2731061666666667,-0.6006010666666667,-9.829444666666667
791,4.065,1.64,4.3828427393924825,0.32120930000000003,-0.54513375,-9.891240499999999
792,1.736666666666667,1.7633333333333334,2.474753163770896,0.5879599333333334,-0.43518686666666667,-9.801129666666666
793,1.73,3.76,4.138381584388713,0.38804130000000003,-0.34179845,-9.8943265
794,1.99,2.21,2.973589703626388,0.34246930000000003,-0.3152013666666667,-9.916641666666667
795,1.7149999999999999,1.4449999999999998,2.2424598878861985,0.60063245,-0.37209955,-9.875311499999999
796,2.3699999999999997,2.8733333333333335,3.7240078417108373,0.5164733666666667,-0.4003909666666667,-9.888347
797,2.07,2.1149999999999998,2.959084050931098,0.44763005,-0.52641025,-9.899969500000001
798,3.4599999999999995,1.39,3.7284515154507343,0.4658614666666667,-0.5366893333333334,-9.613867999999998
799,1.935,2.605,3.244637036825192,0.4372747,-0.4352115,-9.906612500000001
800,3.03,2.4566666666666666,3.9000619512898456,0.546516,-0.5076098,-9.909002333333333
801,2.185,1.79,2.824317881283105,0.26436919999999997,-0.5239688,-9.867922
802,3.026666666666667,2.533333333333333,3.946202905484683,0.2869511,-0.46552483333333333,-9.835861666666668
803,3.205,1.635,3.597563211341662,0.3504882,-0.4309804,-10.0375365
804,2.3833333333333333,2.53,3.475267618700296,0.35487320000000006,-0.4395716,-9.795383333333334
805,3.295,1.3050000000000002,3.543751131804823,0.5213953,-0.5947300499999999,-9.950122
806,3.5733333333333337,1.71,3.960936598461789,0.3478676666666667,-0.6034028666666668,-9.756298
807,3.185,2.59,4.104316392721109,0.28103659999999997,-0.6187343,-9.754857
808,3.4633333333333334,1.3333333333333333,3.710834103305487,0.5436429333333334,-0.5798947,-9.875418333333334
809,2.9299999999999997,1.92,3.502582725914941,0.5628092499999999,-0.6855027,-9.774551500000001
810,3.4066666666666663,2.6833333333333336,4.33557003255607,0.35658070000000003,-0.5599449333333334,-9.921599333333333
811,3.715,2.62,4.544887395313247,0.23693015000000003,-0.6205445,-9.7070705
812,3.14,1.86,3.6490732433577735,0.40753573333333337,-0.46618413333333336,-10.1424
813,2.935,1.365,3.236637132223929,0.5037883999999999,-0.7050315,-10.0234925
814,4.036666666666666,2.3733333333333335,4.681673327968325,0.4431907333333333,-0.6314042,-9.892762666666668
815,3.33,1.7650000000000001,3.7683705202032316,0.3674372,-0.5524624,-9.7898455
816,2.7000000000000006,2.596666666666667,3.7453551618352576,0.4980997333333333,-0.6723690666666666,-9.992855666666665
817,4.045,2.215,4.6108670925906585,0.18684095,-0.48754935,-9.813752
818,3.66,1.8866666666666667,4.117070302549249,0.41759949999999996,-0.6641699666666666,-9.950495333333334
819,4.005,1.8599999999999999,4.415199672844262,0.32412779999999997,-0.57951975,-9.837521500000001
820,3.936666666666667,2.5733333333333337,4.702016997458587,0.4542029,-0.5761079666666666,-9.800442
821,2.39,2.76,3.6503808818915653,0.64219575,-0.5070481499999999,-9.8487775
822,3.026666666666667,2.5633333333333335,3.965510696515802,0.5064927666666666,-0.5170651333333334,-9.828786666666666
823,3.1100000000000003,2.67,4.0980478696478615,0.5860201,-0.72766955,-9.619627999999999
824,3.533333333333333,1.8966666666666665,4.009641778340249,0.3646376,-0.42517406666666663,-9.598762333333333
825,2.975,1.26,3.2306033407782335,0.41353969999999995,-0.5149370999999999,-9.9760685
826,3.853333333333333,2.5566666666666666,4.6232956840574255,0.3740609,-0.6665276333333333,-9.925322333333334
827,3.63,2.16,4.223299101401969,0.660879,-0.6078811500000001,-9.830993
828,2.103333333333333,2.67,3.398486131292182,0.4988987999999999,-0.5788654000000001,-9.898596666666664
829,3.6,2.605,4.442644636688762,0.5516163,-0.5244331,-9.8244475
830,3.91,2.23,4.500364117382325,0.4108629333333333,-0.6276171666666668,-9.863473
831,3.79,2.75,4.681406310408012,0.58152285,-0.65880135,-9.8021675
832,3.703333333333333,2.94,4.727180495527861,0.5005169333333334,-0.6886363333333333,-9.959050666666668
833,3.5949999999999998,3.205,4.814827486979001,0.5306000000000001,-0.6356106499999999,-9.7829415
834,2.9,2.9,4.100343385188515,0.3656370666666667,-0.5920704666666666,-9.822928666666668
835,4.585,1.9449999999999998,4.979675769205782,0.60932745,-0.6847941,-9.935284
836,3.2266666666666666,1.9433333333333334,3.7661556860037217,0.44818396666666666,-0.5552926333333333,-9.838959000000001
837,2.76,2.01,3.4138796559378526,0.30621145,-0.49629565,-9.889529
838,3.426666666666667,2.4333333333333336,4.20191544631535,0.43753646666666673,-0.47365399999999996,-9.875589
839,3.165,2.68,4.146361891943234,0.43438604999999997,-0.50869615,-9.950899499999998
840,1.843333333333333,3.27,3.7532768993796846,0.34850963333333335,-0.44649503333333335,-9.995118666666666
841,3.325,1.725,3.745384983542369,0.41080635,-0.4231431,-9.8266095
842,3.3266666666666667,2.856666666666667,4.383843283676019,0.4189947333333333,-0.4603154,-9.877964333333333
843,3.795,1.415,4.0498544457899275,0.6168624,-0.56265275,-9.994076
844,4.043333333333334,1.8099999999999998,4.429357052029039,0.4856443666666667,-0.6310580333333333,-9.924116666666668
845,3.17,2.8499999999999996,4.2618199275181325,0.40384805,-0.6092262,-9.710886
846,4.069999999999999,2.1333333333333333,4.594382757681289,0.4941489666666667,-0.7293170666666667,-9.994024000000001
847,3.7249999999999996,3.475,5.092565900972187,0.40402970000000005,-0.7041649999999999,-9.792767999999999
848,4.243333333333333,2.91,5.143781412020479,0.3006695,-0.6600806333333332,-9.698834
849,4.355,3.15,5.37302569313443,0.57160315,-0.6301791999999999,-10.0737575
850,3.3966666666666665,2.1266666666666665,4.006838592625459,0.5470288,-0.6880115333333333,-10.021289999999999
851,4.475,2.775,5.264084236471426,0.52234305,-0.28238755000000004,-9.602637000000001
852,0.31,3.4633333333333334,3.4771627379267844,0.5708529333333333,-0.42733556666666667,-9.901190666666666
853,3.735,3.915,5.408856272040031,0.7377251,-0.56410445,-9.748831
854,4.8533333333333335,4.069999999999999,6.330884081433529,0.6381947,-0.6574736666666666,-9.723944666666666
855,3.5199999999999996,3.425,4.909812557264335,0.5244703500000001,-0.40353485,-9.821159000000002
856,1.47,3.7266666666666666,4.005732915820186,0.5672760666666666,-0.5636883666666667,-9.673398
857,2.93,3.34,4.4419333321834245,0.6620263,-0.57791905,-10.246855
858,3.9633333333333334,3.23,5.111189884144975,0.6020812999999999,-0.5588991333333333,-9.986927666666666
859,2.965,3.495,4.582067389788057,0.61720955,-0.48673944999999996,-9.80528
860,2.8733333333333335,4.293333333333333,5.164619523554482,0.6970528333333333,-0.4720368,-9.980178666666665
861,3.3499999999999996,4.795,5.847076778383306,0.8019785,-0.5746471999999999,-9.7983995
862,3.11,5.726666666666667,6.514182661457171,0.9258919666666666,-0.5985990666666667,-9.799152
863,5.01,5.0,7.07363549454847,0.8299835,-0.59939705,-9.958961500000001
864,3.4033333333333338,4.2,5.403880008585647,0.7940678333333334,-0.6650567,-9.736976666666665
865,4.9399999999999995,4.175,6.464595625466737,0.85628975,-0.74257825,-10.108805
866,3.513333333333333,4.593333333333333,5.780636660679638,0.7465911666666667,-0.5756135666666666,-9.927863
867,2.63,4.57,5.271349305253074,0.5794444000000001,-0.5021814,-9.846086500000002
868,3.0366666666666666,3.5333333333333337,4.6576919401027785,0.7219045,-0.5122653333333332,-9.867080666666668
869,2.115,4.335,4.822541902165825,0.7424343499999999,-0.4455622,-9.9002055
870,3.5666666666666664,3.8833333333333333,5.270853710449584,0.8017154333333333,-0.6070400666666667,-9.847316000000001
871,4.45,4.895,6.611754915094963,0.91988465,-0.63875545,-9.862347
872,2.1166666666666667,6.03,6.389414888602099,1.1591164999999999,-0.5526315666666667,-9.902765666666665
873,1.865,6.890000000000001,7.136773894977734,1.1977030000000002,-0.20037764999999996,-9.7031
874,0.16,8.149999999999999,8.151559796001257,1.2445686666666669,-0.16189073333333334,-9.720951999999999
875,1.395,7.42,7.549273698185736,1.2827715,-0.17207165,-9.403315
876,1.2533333333333334,7.19,7.2978551555407,1.238909,-0.1470351666666667,-9.878038666666667
877,0.755,7.295,7.333755275242163,1.2235315,-0.16651247,-9.5444875
878,0.9,6.6433333333333335,6.703748547997753,1.1140413333333334,-0.20333486666666667,-9.564902666666667
879,2.0149999999999997,7.0,7.28285671232729,1.0794163499999998,-0.1353395,-9.9196885
880,1.4966666666666668,6.763333333333333,6.926202034449132,1.1535976666666667,-0.20025325666666668,-9.769985666666665
881,0.47,6.23,6.247633850982902,1.0568425000000001,-0.06692305500000001,-9.851681500000002
882,1.1233333333333333,6.16,6.261198921420547,1.0411896666666667,-0.23070913333333332,-10.002194000000001
883,2.08,6.23,6.566752209813382,1.10965,-0.19529595,-9.788084999999999
884,0.9933333333333333,6.456666666666666,6.532310094054346,1.114214,-0.26520213333333337,-9.793887333333334
885,1.58,6.55,6.737062782734641,1.2392604999999999,-0.26790755,-9.6256915
886,2.033333333333333,6.079999999999999,6.409782577713632,1.0817733333333333,-0.19725693333333336,-9.827261333333333
887,-0.135,5.074999999999999,5.076790552400289,1.0456378499999999,-0.24020134999999998,-10.000998500000001
888,1.0833333333333333,5.91,6.008123314620076,1.0517128666666666,-0.15340705333333335,-9.818676666666668
889,0.885,6.26,6.322001736505481,0.81333665,-0.03465831999999999,-9.743223
890,0.05666666666666664,5.03,5.030318365414224,0.9725998333333333,-0.09407876999999999,-9.84964
891,1.44,5.8100000000000005,5.9851973588805665,1.0827265000000001,-0.046916945,-9.884591499999999
892,0.05666666666666668,4.816666666666666,4.816999202905402,0.9719376333333333,-0.08689258333333333,-9.872514666666667
893,0.185,5.85,5.852914315786139,0.92189375,-0.018535481,-9.5938495
894,0.5433333333333333,5.493333333333333,5.52005589650291,0.8953673000000001,-0.044131493333333334,-9.911703000000001
895,-0.08499999999999999,5.98,5.980601871581982,1.0445134,-0.079310415,-9.812404
896,0.69,4.116666666666666,4.173993877805108,0.8337636,-0.09888566666666666,-9.879073666666669
897,-0.07999999999999999,4.42,4.4207224861123136,0.8017377,-0.07625443500000001,-9.738081000000001
898,0.5166666666666667,4.5633333333333335,4.592427557664521,0.7801833333333333,-0.051902783333333334,-9.667619333333333
899,1.38,5.075,5.258806119857322,0.6589842,-0.007877635000000001,-9.6664515
900,-0.7866666666666666,5.123333333333334,5.183217013621942,0.7661459,0.04292056,-9.853885333333332
901,-0.485,5.03,5.053268287547357,1.0576029500000002,-0.09825830499999999,-9.9704855
902,0.48,4.45,4.475761001160053,0.7561835666666666,0.017965625000000002,-9.788687333333334
903,0.04,4.529999999999999,4.530176228882303,0.73828225,-0.024564604999999996,-9.900570499999999
904,0.21666666666666667,4.659999999999999,4.6650231389512316,0.8837287666666667,-0.026742758000000002,-9.878057333333333
905,0.47500000000000003,4.675,4.699015755243405,0.7383486,0.003579095000000001,-9.785418499999999
906,0.0666666666666667,4.49,4.490493886285147,0.6290774666666668,-0.07462018833333334,-9.763250666666666
907,-0.9550000000000001,4.125,4.23391942213362,0.908555,0.009117150000000004,-9.997081000000001
908,0.15666666666666665,4.666666666666667,4.669289873537946,0.5898282666666667,0.00519839,-9.746752666666666
909,-1.3,4.445,4.630835024358915,0.7207188,-0.032193895,-9.837420999999999
910,0.7833333333333333,3.8900000000000006,3.9679677412737417,0.7149374333333333,-0.13823476999999998,-9.793594666666666
911,1.165,5.58,5.699941334219697,0.6890165500000001,-0.0237724,-9.656703499999999
912,0.22999999999999998,3.8766666666666665,3.883473148494598,0.8347851999999999,-0.07546324306666666,-9.941029333333335
913,-0.365,4.904999999999999,4.918528680437374,0.9794945500000001,-0.055680104999999994,-10.075429999999999
914,0.39666666666666667,4.583333333333333,4.600429667389128,0.8201814666666666,-0.05089771666666667,-9.920435
915,0.26,4.065,4.073292469087754,0.71680385,-0.17237005,-9.7325965
916,0.8966666666666666,3.78,3.884745071242026,0.6526476333333334,-0.05663873,-9.843293333333333
917,0.07999999999999999,4.455,4.455716788261755,0.7152784999999999,-0.16496895,-9.680677
918,0.17,4.616666666666666,4.619788798159129,0.8576258999999999,-0.03776381,-9.546166
919,-0.16999999999999998,5.49,5.492623371414574,0.7402249,-0.222366325,-9.810715
920,1.26,4.753333333333333,4.917126572174281,0.9118817333333333,-0.12372964999999998,-9.914323
921,-0.32,4.01,4.0227270290754005,0.8085798500000001,-0.085421765,-9.765528499999999
922,1.3499999999999999,4.663333333333333,4.854395072239526,0.6852385333333334,-0.11591205333333333,-9.828408999999999
923,0.19,4.545,4.548961337331441,0.77121815,-0.17158905,-9.820756
924,2.473333333333333,5.013333333333333,5.588852048044759,0.8071583000000001,-0.2650812333333334,-9.707811999999999
925,2.1,4.205,4.699372687420035,0.6553057,-0.3108338,-9.793725
926,1.6866666666666665,4.253333333333333,4.574982064417326,0.8293837666666666,-0.17382011666666666,-9.834177333333335
927,0.13,3.9000000000000004,3.90216271974796,0.90199045,-0.23943575000000006,-9.9316475
928,1.4133333333333333,5.260000000000001,5.446053252749659,0.7742839333333333,-0.16347636000000001,-9.861996333333332
929,1.24,3.9050000000000002,4.096857748321732,0.7239502,-0.271735,-10.07515
930,0.7466666666666666,3.986666666666667,4.055875023048177,0.7944892666666666,-0.2024435,-9.980692
931,0.76,4.26,4.327139384899569,0.7543011,-0.13102785,-9.7816045
932,1.4400000000000002,4.313333333333333,4.54692484210835,0.7102855333333332,-0.25977226666666664,-9.786609
933,1.37,3.855,4.090854658936093,0.6325535499999999,-0.27241,-9.785594499999998
934,1.6533333333333333,4.04,4.364696915128431,0.6638575666666666,-0.22101786666666667,-9.782626666666667
935,1.025,4.1,4.225971020476817,0.4730702,-0.18245350000000002,-9.711052
936,0.48333333333333334,2.653333333333333,2.6969653068725026,0.6901767333333334,-0.05819478,-9.923648
937,0.06,4.66,4.660385398071355,0.49790720000000005,-0.08121956999999999,-9.8338875
938,0.7300000000000001,3.716666666666667,3.7875801557060487,0.5021496999999999,-0.33009306666666666,-9.697728666666668
939,4.07,3.005,5.057640628990217,0.8349742499999999,-0.4116179,-10.226099999999999
940,2.35,2.9933333333333336,3.8049334583769805,0.5204430000000001,-0.4122204,-9.852308333333335
941,3.56,3.3099999999999996,4.8595878628602405,0.4108412,-0.41687169999999996,-9.7946645
942,2.2600000000000002,2.893333333333333,3.6707812539592175,0.4655938333333333,-0.39122419999999997,-10.011670333333333
943,1.045,3.09,3.261758122017846,0.61315805,-0.44982410000000006,-9.9777375
944,2.1566666666666667,3.9033333333333338,4.458702014342595,0.6946338333333332,-0.33487283333333334,-9.943341666666667
945,1.865,4.375,4.755216807358697,0.71624325,-0.3913379,-9.7088265
946,1.3433333333333335,2.963333333333333,3.2533489699991227,0.6061610000000001,-0.28848176666666664,-10.170233333333334
947,2.08,1.43,2.5239654437755,0.398547,-0.38863565,-9.696015
948,3.4966666666666666,3.606666666666667,5.021808900858871,0.36939759999999994,-0.3306462666666667,-9.670686000000002
949,1.135,3.05,3.2541524122773344,0.6161287,-0.43070564999999994,-9.931255
950,3.123333333333333,2.3366666666666664,3.899975924909373,0.48461893333333333,-0.5040042666666666,-9.779429
951,3.48,2.205,4.119034377878945,0.52995975,-0.44244720000000004,-9.8485025
952,1.3733333333333333,2.393333333333333,2.7591650470313067,0.5683605333333334,-0.15635296,-9.884838333333333
953,-0.72,4.75,4.804134864945839,0.5691824000000001,-0.29068755,-10.058305
954,2.3266666666666667,4.913333333333333,5.4351582096638555,0.7274466666666667,-0.33104229999999996,-10.112511333333332
955,2.66,3.87,4.6948626201327,0.8829673,-0.06537359,-9.813334
956,-2.1633333333333336,3.5700000000000003,4.173589885987328,0.7656908000000001,-0.12581657333333332,-9.795854
957,0.9349999999999999,2.84,2.9898342600173398,0.641408,-0.094839655,-9.5742115
958,2.8766666666666665,3.67,4.661843923270031,0.7034009333333332,-0.3088370333333333,-10.010081666666666
959,1.465,4.279999999999999,4.52334293278769,0.6785073500000001,-0.07607393,-9.9103795
960,-1.8833333333333335,4.043333333333333,4.459775613278416,0.7432907666666667,-0.17362326333333333,-9.723096666666667
961,3.9000000000000004,5.27,6.552859665986289,0.9273146999999999,-0.15586535,-9.8953965
962,1.486666666666667,5.676666666666667,5.8674939576813685,1.0217945333333334,-0.2422465,-10.069498333333334
963,0.935,6.8149999999999995,6.878540780553729,1.0023129000000002,-0.17759165,-9.775876
964,0.8466666666666667,6.166666666666667,6.2242953083050745,0.9002095666666667,-0.2668565333333333,-9.690208
965,1.82,5.41,5.7070701328683,0.9766437000000001,-0.08571226000000001,-9.756552
966,0.9966666666666667,6.38,6.4570608934946785,0.9105692666666666,-0.2783007,-9.896120999999999
967,2.04,4.55,4.985513757229522,0.91394965,-0.30576390000000003,-9.866318500000002
968,0.8433333333333333,5.506666666666667,5.5706730007890455,0.9118182666666668,-0.2909493666666667,-9.735601666666666
969,1.94,5.895,6.204944351653879,0.8437530499999999,-0.24897704999999998,-9.6358995
970,1.71,4.943333333333333,5.230046361364327,0.9009207666666667,-0.3375628,-9.736431333333334
971,2.515,5.0600000000000005,5.6491034881141795,0.861353,-0.43538255000000003,-9.933129000000001
972,2.4266666666666667,3.8866666666666667,4.581031819365187,0.7921222,-0.3466009666666667,-9.967212666666667
973,0.99,4.535,4.641581345176098,0.8595458,-0.3337469,-9.9651615
974,1.0166666666666666,4.8933333333333335,4.997580204635992,0.8418218333333334,-0.27177973333333333,-9.853888
975,1.9500000000000002,3.9250000000000003,4.382028585911869,0.8209983,-0.1907912,-9.764085
976,0.8033333333333332,4.25,4.325119697780256,0.7612814999999999,-0.21458096666666668,-9.852666000000001
977,0.14,4.62,4.622116128207479,0.7727802,-0.20396225,-9.780607499999999
978,1.2266666666666668,4.333333333333333,4.503289764713755,0.7556087000000001,-0.12373429666666667,-9.579675666666667
979,0.585,4.88,4.914854734542541,0.6524028,-0.1990185,-9.996180500000001
980,0.49,4.06,4.089412916391182,0.8259259,-0.11834353000000002,-9.861226333333333
981,0.6950000000000001,4.45,4.503837626668495,0.84084815,-0.1472564,-9.796240000000001
982,0.6666666666666666,4.296666666666667,4.347982915784659,0.8334360333333334,-0.20723466999999998,-9.968917666666666
983,0.085,3.49,3.4910336667267416,0.56947625,-0.078088777,-9.789228999999999
984,0.6266666666666666,3.3633333333333333,3.4211505436510725,0.6699235333333332,-0.020494340000000003,-9.793811666666668
985,-1.105,3.71,3.8708420249661386,0.7481476499999999,0.00959507,-10.106738
986,-0.4166666666666667,4.376666666666666,4.396417224895489,0.8594251333333333,-0.11220314666666666,-10.046821
987,1.055,3.27,3.4357992149832493,0.80035755,0.042357925000000005,-9.923533
988,-1.2566666666666666,4.073333333333333,4.262463373477914,0.5812340000000001,0.09023712333333334,-9.640229666666666
989,0.305,3.5,3.5132476800569123,0.97946395,-0.0743789,-9.999623
990,0.9400000000000001,3.436666666666667,3.562754250676005,0.5629304,-0.03876736,-9.867049666666666
991,0.03,4.195,4.195107077444549,0.748958,-0.025139172,-9.905283
992,-0.07333333333333332,4.36,4.360615483332748,0.43777533333333335,-0.1358166,-9.786865
993,0.79,3.285,3.3785560518172764,0.40764314999999995,-0.047071057,-9.7546125
994,-0.01333333333333333,2.86,2.8600310540446245,0.4962443,-0.09814571033333334,-9.875972666666666
995,0.030000000000000006,3.435,3.4351308448829405,0.4606289,0.03558246500000001,-9.771004
996,-0.7366666666666667,2.02,2.1500820715135287,0.6877628666666666,-0.026221610000000003,-9.936497666666666
997,0.09000000000000002,2.5599999999999996,2.5615804904710378,0.392999,-0.057559084999999996,-9.8576045
998,0.05666666666666672,2.3533333333333335,2.3540150982828423,0.35445433333333337,-0.14707992,-10.051290666666667
999,1.78,0.8600000000000001,1.9768060196969826,0.30990344999999997,-0.10686942500000002,-9.8604945
1000,1.5033333333333332,2.8533333333333335,3.224849378955506,0.5897775666666667,-0.30348746666666665,-10.080607666666667
1001,1.4500000000000002,4.18,4.423931328937808,0.7169946,-0.21827712,-9.792727
1002,1.5200000000000002,4.666666666666667,4.907450080973675,0.7807709666666666,-0.27650256666666667,-9.883040000000001
1003,2.255,3.6500000000000004,4.289597141264831,0.71360165,-0.3853449,-10.004307
1004,2.1199999999999997,3.8666666666666667,4.408932451788015,0.6771959333333334,-0.22799196666666663,-9.863919000000001
1005,-0.375,4.62,4.635161279988172,0.6425923499999999,-0.3173018,-9.7478755
1006,2.4499999999999997,4.0633333333333335,4.743744312779075,0.8212297666666667,-0.28927053333333336,-9.793888333333333
1007,1.255,4.085,4.273123012193762,0.85784745,-0.26908160000000003,-9.844113499999999
1008,1.5333333333333332,4.776666666666666,5.0161943524108406,0.8057021666666667,-0.2539722,-9.878612666666667
1009,2.715,4.125,4.9370140817955335,0.78283565,-0.110101465,-9.7944935
1010,-1.4000000000000001,2.6,2.9527367659093184,0.5159979333333333,-0.14406109666666667,-9.976285666666664
1011,1.675,2.455,2.971688528196021,0.46668,-0.22602405000000003,-9.7104555
1012,2.5300000000000002,4.663333333333333,5.304096117143541,0.6432218666666666,-0.14453903199999998,-10.05979
1013,-0.09000000000000002,3.23,3.2312522986396415,0.8836467,-0.31156754999999997,-9.9597005
1014,1.5633333333333335,4.296666666666667,4.571736233771809,0.7270667,-0.21407143333333334,-9.837171
1015,1.35,3.7,3.9382693911950293,0.67887655,-0.1170544,-9.7961655
1016,1.0233333333333332,4.3933333333333335,4.510713432329604,0.8082952333333333,-0.09047265333333336,-9.869320333333333
1017,-0.415,4.515000000000001,4.533993092503364,0.96869155,-0.088487525,-9.814995
1018,-0.15000000000000005,5.159999999999999,5.1621738770980885,0.8691803333333333,-0.15080213333333334,-9.938162
1019,1.58,3.045,3.4301711537372457,0.75882535,-0.11775671000000001,-9.792851
1020,0.6533333333333333,4.056666666666666,4.108853294322569,0.6704481000000001,-0.10723468766666666,-9.756107
1021,1.085,4.065,4.207074289352095,0.7113732,-0.094981555,-9.842566999999999
1022,-0.12,4.053333333333334,4.0551062970594565,0.7069415333333332,-0.16213511666666666,-9.920504666666666
1023,0.74,4.155,4.220268323687626,0.6391827999999999,-0.15162009999999998,-9.8026205
1024,0.68,4.286666666666666,4.340166819309856,0.6970845666666667,-0.020044330000000003,-10.026322666666667
1025,-0.285,4.0649999999999995,4.074961799845552,0.7582949999999999,-0.0435591995,-9.926165999999998
1026,-0.08333333333333333,3.733333333333333,3.7342619607429817,0.7071952666666665,-0.022468342666666658,-9.836857
1027,-0.125,4.199999999999999,4.201856375845701,0.8489716,-0.04934329,-9.8033405
1028,0.27666666666666667,3.8699999999999997,3.8798618537941088,0.8395683333333334,-0.05315562333333334,-10.034334333333334
1029,0.475,4.09,4.117443579588535,0.6178410999999999,-0.04186683000000001,-9.805748
1030,-0.4033333333333333,3.8866666666666667,3.907506359798176,0.6015179333333333,-0.05395052333333333,-9.832766666666666
1031,-0.15000000000000002,3.205,3.2085045624572346,0.60749925,-0.07479749000000001,-9.687251
1032,0.23,3.6766666666666663,3.68384380064538,0.7623272666666666,-0.03785532666666666,-9.959272666666665
1033,-0.024999999999999994,3.81,3.8100818991864465,0.79135305,-0.17962804999999998,-10.044744000000001
1034,0.6900000000000001,3.8066666666666666,3.868605740675359,0.7067227333333334,-0.05829533333333333,-9.979446333333334
1035,-0.255,3.7350000000000003,3.7436823938819552,0.6174587,0.018391565,-9.8097785
1036,-0.1366666666666667,3.643333333333333,3.645892260408897,0.7674961666666666,-0.12731288999999998,-9.897979666666666
1037,1.9849999999999999,4.095000000000001,4.5500041876807655,0.7275285499999999,-0.054002955000000005,-9.895131
1038,1.2066666666666668,3.376666666666667,3.5855593797381697,0.6826163,-0.16711506666666665,-9.845360666666666
1039,0.325,3.325,3.340827951383577,0.5979458,-0.13840133,-9.7707115
1040,0.5866666666666667,2.98,3.0371479008617803,0.4988065,-0.09438132666666667,-9.887054666666666
1041,-0.09,3.325,3.3262164549333364,0.56762395,-0.086167585,-9.665464
1042,0.7366666666666667,3.08,3.1667893744075353,0.454157,-0.08201870000000001,-9.854690666666668
1043,0.22999999999999998,2.84,2.8492905554060846,0.5173283,-0.006542590000000001,-9.862153
1044,1.5666666666666664,3.3633333333333333,3.70993740691458,0.5955328333333334,-0.21106066666666665,-9.940208333333333
1045,1.03,3.045,3.2143313427825055,0.46819245,-0.1784032,-9.969125
1046,-0.39666666666666667,2.67,2.699283336714651,0.5922449,-0.08268021999999998,-9.947456333333335
1047,-0.245,1.9700000000000002,1.9851703565336634,0.4473123,0.060273574999999996,-9.923306
1048,-0.6633333333333333,2.6,2.683227355498941,0.4421552,-0.03531798333333333,-9.958770000000001
1049,0.475,1.605,1.6737953819107627,0.6058572,0.039803365,-9.804562
1050,-0.85,3.3533333333333335,3.45926571678206,0.6433049333333334,-0.021393040000000002,-9.927684999999999
1051,0.885,3.5250000000000004,3.634262174063758,0.4559402,-0.13099315,-9.641078499999999
1052,1.8933333333333333,3.0700000000000003,3.6064081368649274,0.5843376,-0.09513928,-9.843855
1053,-0.8200000000000001,3.335,3.434219772971399,0.48125545000000003,-0.19142555,-9.859202499999999
1054,1.9033333333333333,2.46,3.1099921701171125,0.5375476666666666,0.013393854966666667,-10.013562333333333
1055,-1.31,4.59,4.77289504979592,0.5863373000000001,-0.10071174999999999,-9.875494
1056,0.21999999999999997,2.4833333333333334,2.493053174965254,0.5712347999999999,-0.10750358333333336,-9.908930666666667
1057,-0.315,2.6550000000000002,2.673607856287542,0.6778695499999999,-0.016740509999999993,-10.0155595
1058,-1.45,1.7399999999999995,2.2648297027198523,0.4325399333333333,-0.004222303333333333,-9.875439333333333
1059,-1.13,3.935,4.093790017103754,0.34246624999999997,0.16366605,-9.981636
1060,-0.48666666666666664,3.5733333333333337,3.6062790241370557,0.46814939999999994,0.04366804,-9.803906
1061,0.8500000000000001,1.935,2.113397807120092,0.5214,0.026839935000000002,-9.856787
1062,0.08,2.1766666666666663,2.178135601510651,0.4349114666666667,-0.07566435233333334,-9.836914
1063,1.435,3.465,3.750058516605015,0.6006863499999999,-0.17488520000000002,-9.950221500000001
1064,1.0933333333333335,3.733333333333333,3.889918161225671,0.5863678666666666,-0.13735061666666668,-9.939019333333333
1065,-1.135,4.045,4.200965245471564,0.62262105,-0.073160445,-9.7803135
1066,0.04999999999999999,2.953333333333333,2.9537561787119544,0.5798457333333333,-0.048079543333333336,-9.819303
1067,0.24000000000000002,2.855,2.8650614861679102,0.4650191,-0.081025295,-9.7742325
1068,0.8366666666666666,3.313333333333333,3.417222320992063,0.5318663666666666,-0.036424743333333336,-9.940140000000001
1069,-0.78,3.17,3.264456935022913,0.43617035,0.014794934999999999,-9.624367
1070,0.9933333333333333,3.2900000000000005,3.4365282461447504,0.48333743333333334,-0.10740531333333332,-9.771030333333334
1071,0.655,3.205,3.271177528697649,0.68527395,-0.0258492975,-10.0062915
1072,0.0366666666666667,3.3800000000000003,3.3801986457150797,0.6158762666666667,-0.09258730999999999,-9.898389666666665
1073,0.9349999999999999,3.8449999999999998,3.9568847889980674,0.5459336,-0.06998492,-9.7932245
1074,0.15000000000000002,3.44,3.443264868999047,0.5820265333333333,-0.022774806666666664,-9.921659
1075,-0.305,4.140000000000001,4.1512001936987675,0.78093075,0.00270733,-9.932948
1076,0.023333333333333317,3.3000000000000003,3.3000823993175765,0.38704216666666663,-0.07187387,-9.640663333333334
1077,0.9450000000000001,3.055,3.197687216348348,0.5510899,-0.17051,-9.693051
1078,1.25,3.1366666666666667,3.3763318056439267,0.6876571,-0.029517196666666672,-9.939184666666666
1079,-2.5700000000000003,4.59,5.259169384321166,0.60524255,-0.07727206150000002,-9.954922
1080,0.8633333333333333,2.6466666666666665,2.783820875589039,0.5073706,-0.052326543333333336,-9.791942
1081,1.21,3.8499999999999996,4.035392881355023,0.425832,-0.10669999999999999,-9.820483
1082,0.5433333333333333,3.706666666666667,3.7462216868451437,0.6410551,-0.03836262666666667,-10.003932666666666
1083,0.22000000000000003,3.225,3.2324872583410924,0.64210015,-0.15732429999999997,-9.984161499999999
1084,1.5899999999999999,4.2,4.490386390654369,0.5863712333333333,-0.2776985,-9.959429
1085,1.54,3.395,3.7275794601648644,0.62967295,-0.22843765,-9.7700705
1086,0.5433333333333333,3.1733333333333333,3.219464806075793,0.5956399666666666,-0.14766760999999998,-9.861639666666667
1087,0.46,3.7649999999999997,3.7929566760780555,0.6402357000000001,-0.21284370000000002,-9.8595615
1088,3.1133333333333333,3.2533333333333334,4.501844172362514,0.6365978666666666,-0.2202487333333333,-9.911444333333334
1089,-0.20499999999999996,2.89,2.8972554864888345,0.6054571000000001,-0.28142619999999996,-10.022996000000001
1090,0.3433333333333333,4.013333333333334,4.0279683926885825,0.5728488,-0.2207188666666667,-9.941392666666665
1091,0.9299999999999999,3.1100000000000003,3.2459436844701237,0.6181151500000001,-0.1480171,-9.9906635
1092,1.21,2.8800000000000003,3.123662382755903,0.5401617666666666,-0.11874630666666668,-9.801757666666665
1093,0.325,3.6950000000000003,3.709245681995099,0.4319493,-0.096345405,-9.898055
1094,0.6566666666666666,2.5933333333333333,2.675125114219678,0.3879072666666667,-0.23305235333333332,-9.919176
1095,2.755,2.065,3.442522743026426,0.30597605000000005,-0.26258615,-9.8329575
1096,1.4033333333333333,2.35,2.7369216223199846,0.4175202666666667,-0.19377789999999998,-9.807701666666668
1097,0.355,1.7950000000000002,1.8297564774173043,0.3456452,-0.1838087,-9.806677
1098,0.5633333333333334,1.7033333333333331,1.794044423390336,0.3859106333333333,-0.11161989666666666,-9.835530666666667
1099,0.575,1.77,1.861026549200995,0.45995375,-0.24775555000000002,-10.037143
1100,3.8366666666666673,0.9233333333333335,3.946046235243963,0.1837072666666667,-0.36403836666666667,-10.159378666666667
1101,3.3899999999999997,0.915,3.5111747035979914,0.02939,-0.21153715,-10.274830000000001
1102,-0.5833333333333335,0.8266666666666667,1.0117469759421935,0.06925833333333332,-0.12257426099999998,-9.631934333333334
1103,6.505000000000001,-0.525,6.526060428427372,0.122924165,-0.40357155,-9.744871
1104,3.6333333333333333,1.8666666666666665,4.0842237108957935,0.26823393333333334,-0.6245106333333333,-9.848808
1105,2.5300000000000002,2.375,3.4695616473965454,0.3046263,-0.48372855000000003,-9.8288315
1106,3.36,2.243333333333333,4.039353109575001,0.3388298,-0.5632489666666666,-10.02008
1107,3.32,1.585,3.6785612040905358,0.33223169999999996,-0.6326767999999999,-9.885624
1108,1.4633333333333336,1.87,2.374338650121924,0.33881866666666666,-0.29471433333333336,-9.855585333333332
1109,1.47,2.16,2.6125612243787395,0.514829,-0.49182215,-9.8152775
1110,3.483333333333334,2.1766666666666663,4.106780935315876,0.33173668666666667,-0.5227084666666667,-9.890100000000002
1111,3.535,-1.07,3.6931926411022915,0.5042949,-0.63671985,-9.606384
1112,4.12,2.3666666666666667,4.750352913196805,0.07699873333333333,-0.6082938666666666,-9.816091333333334
1113,3.76,-0.15499999999999997,3.7631888740422763,0.08542602,-0.53009905,-9.858970000000001
1114,3.5566666666666666,-0.61,3.608531516369161,0.1750528033333333,-0.7522502333333335,-9.914794666666667
1115,3.5,2.17,4.117407047683353,0.25512874999999996,-0.62461945,-9.773443499999999
1116,3.2466666666666666,2.3433333333333333,4.00327070696554,0.23659750000000002,-0.7134760666666667,-9.817839
1117,4.115,1.65,4.432949594231683,0.62487665,-0.65314675,-9.761502
1118,2.283333333333333,2.15,3.135867270377317,0.23350544333333334,-0.6885072666666666,-10.013411333333336
1119,4.645,1.43,4.859675180557876,0.19500445,-0.68425,-9.742447
1120,3.5700000000000003,0.6466666666666666,3.628021012428063,0.26206559999999995,-0.5746562000000001,-9.825377333333332
1121,3.71,0.44999999999999996,3.7371535835091767,-0.085641755,-0.6519188499999999,-9.7836725
1122,3.9333333333333336,-0.3233333333333334,3.9465796928834034,0.20140166333333334,-0.6380304333333334,-9.837424666666665
1123,2.9299999999999997,0.59,2.988761700939048,0.002097924999999997,-0.5955946000000001,-10.009105000000002
1124,3.223333333333333,0.8300000000000001,3.328370598207959,-0.011474146666666685,-0.5309236333333334,-9.982823333333334
1125,3.1849999999999996,0.30000000000000004,3.199083036980864,-0.042570778,-0.515568,-9.934987
1126,1.8933333333333335,-0.27666666666666667,1.9134334825615225,0.09406740000000001,-0.3809503666666667,-9.831407666666667
1127,1.755,1.4249999999999998,2.2605342001732502,0.140698335,-0.4084317,-9.8185115
1128,3.0199999999999996,0.1666666666666667,3.0245912200857843,0.10506112166666666,-0.4659851333333333,-9.841348333333334
1129,3.395,-0.595,3.446684721503668,0.13201830000000003,-0.49377735,-9.780235000000001
1130,2.716666666666667,0.58,2.777845504065936,0.07354269,-0.6104849666666666,-9.851308666666666
1131,4.015,-0.235,4.0218602134021655,0.06852456000000001,-0.4750576,-9.948476
1132,2.9133333333333336,1.3933333333333333,3.2291199152138983,-0.023833910000000003,-0.5174332333333334,-9.696173333333332
1133,2.305,-0.84,2.453211017501122,0.03786141500000001,-0.39127495,-9.974606000000001
1134,1.2166666666666666,-0.7033333333333335,1.4053046642881037,-0.08783983333333334,-0.3948244,-9.870837
1135,2.3200000000000003,-1.2349999999999999,2.6280774932611246,0.03183407,-0.5185217,-9.865152000000002
1136,4.166666666666667,-0.2833333333333333,4.176271940676328,-0.08571553,-0.4391901333333333,-9.772785999999998
1137,2.11,-1.625,2.6629928841000514,0.05911688500000001,-0.7245743499999999,-9.993508
1138,3.5233333333333334,0.27,3.5336505011703068,-0.0031047066666666672,-0.5480734666666667,-9.909079333333333
1139,1.975,-1.03,2.2273537597622792,-0.10850733,-0.6037033999999999,-9.963175
1140,3.276666666666667,-1.21,3.492713546385206,0.170204,-0.5397913,-9.821409000000001
1141,3.545,3.565,5.025935150156388,0.047740710900000004,-0.59744625,-9.9286425
1142,3.6933333333333334,0.5433333333333333,3.7330300319668006,0.11201706666666668,-0.5756391333333334,-9.789579666666667
1143,2.25,-0.24000000000000005,2.26275725346488,0.096432935,-0.53141545,-9.804644
1144,3.236666666666667,-0.40666666666666673,3.2620872052044323,0.04571520000000001,-0.6168562000000001,-9.887600333333333
1145,4.41,0.29500000000000004,4.419836318207559,0.06764712,-0.5926376499999999,-9.792004500000001
1146,3.313333333333333,-0.1666666666666666,3.3175178348178407,0.05044537333333334,-0.5782222333333332,-9.845253333333334
1147,3.475,-0.0050000000000000044,3.475003592708778,-0.028198749999999995,-0.5773313,-9.826200499999999
1148,4.52,0.6766666666666666,4.570265584616916,0.14813837333333332,-0.7017828,-9.813048333333333
1149,4.09,0.515,4.122241422419553,-0.05229745999999999,-0.64254195,-9.982734
1150,3.953333333333333,0.13,3.955466801357707,0.26680896666666665,-0.7152505666666666,-9.642165666666667
1151,4.26,1.605,4.5517992246734895,0.13374960000000002,-0.65511345,-9.822336499999999
1152,3.4599999999999995,0.7400000000000001,3.5381540633271182,0.07481273333333334,-0.6972039666666667,-9.615134666666668
1153,5.115,0.325,5.125287235632167,0.5603424,-0.72606225,-10.0362155
1154,3.5966666666666662,2.8166666666666664,4.567186980686265,0.4697281666666666,-0.7191025,-9.904588333333335
1155,3.16,2.3449999999999998,3.9343420827901276,0.32896549999999997,-0.56767645,-9.750152
1156,3.77,1.6233333333333333,4.104181619210956,0.30430880000000005,-0.5783610333333334,-9.896968666666666
1157,3.0300000000000002,1.125,3.231925882171046,0.2719745,-0.65694625,-9.856482999999999
1158,3.5733333333333337,0.9266666666666666,3.691383016499836,0.16154525533333333,-0.6672779333333333,-9.876034333333331
1159,3.33,0.315,3.3448487636197277,0.3547619,-0.6552331,-9.970154500000001
1160,3.633333333333333,2.0433333333333334,4.167820014234093,0.3512975333333333,-0.6335536,-9.942454
1161,3.33,2.915,4.42453994008038,0.41515729999999995,-0.66820765,-9.8354095
1162,3.24,1.8266666666666669,3.7189720963947566,0.28151970000000004,-0.5397172666666666,-9.773504333333333
1163,3.59,1.69,3.967425006124525,0.16010296999999998,-0.53367295,-9.8516625
1164,2.973333333333333,1.49,3.3254800748202515,0.32209550000000003,-0.5705500666666666,-9.790691666666666
1165,2.8949999999999996,1.04,3.0759883581142526,0.20636625,-0.49046645,-9.825114
1166,3.5966666666666662,1.07,3.7522535684187006,0.24912,-0.5817927333333333,-9.798323666666667
1167,3.5700000000000003,0.14,3.5727404928067905,0.1933838,-0.5861017500000001,-9.9385115
1168,2.7433333333333336,1.406666666666667,3.082706039025692,0.18160504333333335,-0.5535089333333334,-9.831999666666666
1169,4.38,0.89,4.469335117072499,0.20926315,-0.55244395,-9.877298
1170,3.5066666666666664,0.9566666666666667,3.634663558743238,0.26354682,-0.6448453999999999,-9.829085666666666
1171,2.7350000000000003,1.4049999999999998,3.0745325449273455,0.16070245,-0.6282111499999999,-9.982676999999999
1172,3.296666666666667,2.4833333333333334,4.126517636243513,0.21119927666666669,-0.6415176666666667,-9.860326333333335
1173,3.365,-2.34,4.097868626269472,0.42984555,-0.60458385,-9.865568499999998
1174,3.48,1.4900000000000002,3.7852039830992745,0.2775343666666667,-0.6782849333333333,-9.919590333333334
1175,4.705,2.04,5.127305887510067,0.23019015000000004,-0.61734325,-9.747127500000001
1176,3.19,1.33,3.455889437023404,0.10158195666666665,-0.5100121333333333,-9.880443333333334
1177,2.335,0.575,2.4047176424258505,0.3225477,-0.5366693,-9.832439
1178,3.046666666666667,0.53,3.0923798241610725,0.24176940000000005,-0.5583893333333334,-9.879198666666666
1179,3.225,1.175,3.432170102680593,0.16511973,-0.5508707,-9.752147
1180,3.1766666666666663,0.1399999999999999,3.1797470062553437,0.022883510000000006,-0.5221939999999999,-9.886910333333333
1181,2.995,-0.375,3.0183641088896533,0.132046325,-0.4804176,-9.7077655
1182,2.72,0.91,2.8680791141171733,0.2949176,-0.5715909666666666,-9.836158666666668
1183,3.665,0.275,3.6752886726101006,0.19022994999999998,-0.5215506,-9.8548325
1184,3.4499999999999997,1.8800000000000001,3.9284382510471256,0.3039789,-0.5994634999999999,-9.734330333333334
1185,4.425,2.76,5.213738708686003,0.3547010500000001,-0.5366113,-9.851358999999999
1186,3.8700000000000006,1.5366666666666664,4.16349038489487,0.2537507033333333,-0.6625602333333332,-9.806082666666667
1187,2.58,0.515,2.6308640620838792,0.06562938499999998,-0.5773548,-9.6838955
1188,3.2466666666666666,0.9066666666666667,3.370757903623051,0.308737,-0.6343162000000001,-9.980842
1189,3.88,1.3900000000000001,4.1211097476174805,0.32226215,-0.5544604,-9.92981
1190,2.2433333333333336,2.376666666666667,3.267751804415875,0.27659459999999997,-0.5176097,-9.767048333333335
1191,2.42,1.665,2.9371714619579072,0.2083041,-0.5411741999999999,-9.804655499999999
1192,4.326666666666667,1.6966666666666665,4.6468535570930865,0.3296902,-0.4716424666666667,-9.719277333333332
1193,1.3399999999999999,2.1950000000000003,2.5715260920252008,0.42432545,-0.5373593,-9.7819865
1194,4.04,3.483333333333333,5.33245634626907,0.5287492333333333,-0.6147612333333333,-9.747816333333333
1195,3.625,3.38,4.954772846307784,0.6768321500000001,-0.56829735,-9.966345
1196,2.4533333333333336,1.8933333333333333,3.0986068382782,0.39611179999999996,-0.5985654666666668,-9.768447
1197,4.845,0.635,4.886336913665529,0.251677915,-0.7010895500000001,-9.7979835
1198,3.3366666666666664,0.4266666666666667,3.3638048465630717,0.09873572666666668,-0.5011502666666667,-9.931095999999998
1199,2.76,1.905,3.3531801866427866,0.29215505,-0.50517015,-10.2192
1200,4.1066666666666665,2.856666666666667,5.001127283534835,0.4867068666666667,-0.6465812666666667,-10.037661
1201,4.04,1.085,4.182926405464698,0.4666945,-0.8078730000000001,-9.768878
1202,4.69,3.9766666666666666,6.146106972175823,0.6168962333333333,-0.8275586666666667,-9.876348666666667
1203,4.345,3.19,5.388469756130692,0.39253899999999997,-0.7811769,-9.883856
1204,3.78,1.8399999999999999,4.2034612286019195,0.3095140666666667,-0.6341374333333333,-9.948599333333332
1205,3.1799999999999997,2.3,3.923896852065489,0.15296340000000003,-0.60095425,-9.757684
1206,3.2399999999999998,1.8666666666666665,3.7387603908516125,0.45764536666666666,-0.6430247333333333,-9.956707
1207,3.6950000000000003,1.55,4.006518849151102,0.52402825,-0.6082638499999999,-9.996914
1208,3.106666666666667,2.33,3.88264804824998,0.39983943333333327,-0.6303937333333333,-9.917682
1209,4.325,2.045,4.7832732689041295,0.57463595,-0.7596543499999999,-9.8550525
1210,4.93,2.4899999999999998,5.521746942745599,0.3524734666666666,-0.7172299333333334,-9.682410333333333
1211,3.49,1.915,3.980299998045203,0.4784853,-0.6365048,-9.958305500000002
1212,3.39,2.21,4.046047312897613,0.4534886666666667,-0.6630676999999999,-9.884020333333332
1213,3.95,3.115,5.028950648542625,0.6083321500000001,-0.8055235,-9.825948499999999
1214,4.853333333333333,2.066666666666667,5.274062418976113,0.5128996666666666,-0.6647403000000001,-9.826504000000002
1215,2.13,2.6,3.3606227304757414,0.32804160000000004,-0.7141082999999999,-10.13933
1216,2.856666666666667,1.9133333333333333,3.437783403770028,0.24585910000000002,-0.5293662666666666,-9.923170666666666
1217,4.165,-0.09,4.165970562479746,0.2269471,-0.59936855,-9.960379499999998
1218,2.7300000000000004,0.7200000000000001,2.823279587917395,0.15278147666666667,-0.7124081666666666,-10.161373333333334
1219,5.07,-0.61,5.106469258150167,0.02888030000000001,-0.6548864999999999,-10.047753
1220,3.2399999999999998,-0.3466666666666667,3.2584735154024047,0.19445123900000003,-0.6935583333333333,-9.719874666666668
1221,5.6,5.085,7.558756048991624,0.23556639999999998,-0.94984375,-9.91383
1222,5.590000000000001,0.5366666666666666,5.615620775426171,0.09111322333333333,-0.8689144999999999,-9.682895666666667
1223,4.37,-0.175,4.373495809133632,0.044226199999999986,-0.8005285999999999,-9.8139775
1224,3.9333333333333336,-0.5466666666666667,3.971081205848013,0.08518160000000001,-0.7291100333333334,-9.855545666666666
1225,3.83,-0.28,3.840206139097434,0.04933774000000001,-0.8450955499999999,-9.936091000000001
1226,4.206666666666666,0.2966666666666667,4.217095843875069,0.17161728666666665,-0.8109451999999999,-9.889209000000001
1227,3.4699999999999998,-0.06,3.470518058947555,0.04605265,-0.68924915,-9.759916
1228,3.4266666666666663,0.12333333333333334,3.4288828232187187,0.08547463666666667,-0.6369328333333334,-9.844057666666666
1229,3.225,1.77,3.6783441284440954,0.2618904,-0.5397778999999999,-10.03161
1230,2.9566666666666666,0.13000000000000003,2.959520700036835,0.05984422699999999,-0.6219944666666666,-9.851933666666666
1231,4.425000000000001,0.7200000000000001,4.483078618126195,0.10797629999999998,-0.69579145,-9.877793
1232,4.06,0.5033333333333334,4.09102924334618,0.22619310666666662,-0.6955019666666667,-9.849397
1233,3.005,-0.31,3.0209331123811793,0.1309323,-0.6275348000000001,-9.936972
1234,2.813333333333334,0.12666666666666668,2.8161811007868836,-0.05759238999999999,-0.5828271,-9.906374000000001
1235,2.8449999999999998,-0.495,2.8877064583439394,-0.03383796,-0.6238878,-9.905617500000002
1236,2.9166666666666665,-1.2166666666666666,3.1600543218326416,-0.016388474999999996,-0.5928174,-9.682859
1237,3.5700000000000003,-0.08499999999999996,3.571010451911365,0.32429575,-0.6109066999999999,-9.869138500000002
1238,3.606666666666667,2.2666666666666666,4.258994436792771,0.2513726,-0.6075045,-9.837975333333333
1239,2.5149999999999997,1.67,3.0186641872496023,0.24446905000000002,-0.6251905,-9.805092
1240,4.283333333333333,1.1266666666666667,4.428764671336259,0.12144728666666667,-0.5977616,-9.942893
1241,3.595,0.125,3.5971696498789516,-0.107043015,-0.6465714499999999,-9.8835245
1242,3.186666666666667,0.23666666666666666,3.195433896941951,0.20003863,-0.6411203333333334,-9.830997000000002
1243,3.235,0.18500000000000005,3.2402798681183627,0.13461635,-0.61928595,-9.9227905
1244,3.43,1.5633333333333335,3.7690835302681753,0.2822111666666667,-0.6572506666666666,-10.042962333333334
1245,2.715,2.6849999999999996,3.8177287134086195,0.49491975,-0.61558275,-9.934374000000002
1246,3.0033333333333334,2.23,3.7401009633986737,0.14622619666666667,-0.5296354666666666,-9.878140666666667
1247,2.89,0.54,2.939974942208211,0.25185725000000003,-0.6329761,-9.884812499999999
1248,3.5833333333333335,1.1199999999999999,3.7540700358930836,0.08931894000000001,-0.5683229,-9.870657999999999
1249,2.51,0.645,2.5914974107070425,-0.018268900000000005,-0.53704675,-9.997798
1250,1.876666666666667,-1.42,2.353201354541729,-0.08176133133333333,-0.4996972333333333,-9.817705666666669
1251,3.785,-1.43,4.045756956472554,0.02449735,-0.4514107,-9.8008425
1252,1.873333333333333,1.18,2.2138838184695326,0.1568266,-0.4246539333333333,-9.749934000000001
1253,2.48,3.19,4.03981965613126,0.2306588,-0.35034735000000006,-9.798470000000002
1254,2.026666666666667,0.3566666666666667,2.0577987826095776,0.2585984333333333,-0.3877988666666667,-9.807889333333334
1255,2.125,1.345,2.5147207464371286,0.19712883999999997,-0.52894825,-10.0135425
1256,4.636666666666667,2.48,5.25696149662564,0.41750696666666665,-0.5764792,-10.12292
1257,3.82,1.615,4.146897520245511,0.167969095,-0.5841107999999999,-9.72911
1258,4.11,1.3966666666666665,4.3404412997256046,0.15148869333333334,-0.6658685999999999,-9.864708666666665
1259,4.165,1.33,4.371842633269016,0.33172124999999997,-0.79901545,-10.035986000000001
1260,4.28,0.2133333333333333,4.285303539690495,0.2212967,-0.6606425666666667,-9.699747666666667
1261,3.075,1.495,3.4188453616895944,0.38123414999999994,-0.6686605999999999,-9.803655
1262,4.176666666666667,2.6633333333333336,4.952304328029034,0.3431806,-0.6685209000000002,-10.015154666666666
